Subj_idx,Stimulus,Response,Confidence,RT_dec,RT_conf,Condition,Accuracy,Trial,Block,Sol_letters,Tar_letters,Sol_freq,Tar_freq,Letter_changed
1,1,1.0,2.0,1.236,0.884,1,1.0,18,2,8.0,6.0,896.0,100.0,2.0
1,1,1.0,2.0,2.58,0.817,1,1.0,19,2,8.0,7.0,962.0,408.0,2.0
1,1,1.0,2.0,0.932,1.493,1,1.0,20,2,8.0,6.0,175.0,160.0,2.0
1,2,2.0,2.0,2.651,1.244,1,1.0,21,2,6.0,6.0,422.0,422.0,0.0
1,1,1.0,2.0,2.534,0.856,1,1.0,22,2,8.0,7.0,976.0,283.0,2.0
1,2,NAN,2.0,NAN,0.817,1,NAN,23,2,8.0,8.0,2183.0,2183.0,0.0
1,2,1.0,2.0,1.562,0.864,1,0.0,24,2,9.0,9.0,653.0,653.0,0.0
1,2,2.0,1.0,1.632,2.273,1,1.0,25,2,8.0,8.0,1026.0,1026.0,0.0
1,2,2.0,3.0,1.645,3.003,1,1.0,26,2,7.0,7.0,248.0,248.0,0.0
1,2,2.0,2.0,2.105,0.794,1,1.0,27,2,7.0,7.0,212.0,212.0,0.0
1,2,2.0,2.0,1.411,2.619,1,1.0,28,2,8.0,8.0,328.0,328.0,0.0
1,1,2.0,2.0,1.802,1.22,1,0.0,29,2,9.0,9.0,2212.0,100.0,2.0
1,1,2.0,3.0,1.872,1.329,1,0.0,30,2,9.0,9.0,120.0,1042.0,1.0
1,1,1.0,2.0,1.058,0.551,1,1.0,31,2,8.0,6.0,455.0,457.0,2.0
1,2,2.0,1.0,1.485,1.882,1,1.0,32,2,7.0,7.0,920.0,920.0,0.0
2,2,NAN,1.0,NAN,1.425,1,NAN,18,2,8.0,8.0,328.0,328.0,0.0
2,2,2.0,1.0,0.571,0.577,1,1.0,19,2,7.0,7.0,248.0,248.0,0.0
2,2,2.0,1.0,0.717,0.753,1,1.0,20,2,8.0,8.0,1026.0,1026.0,0.0
2,2,2.0,1.0,0.771,0.651,1,1.0,21,2,8.0,8.0,2183.0,2183.0,0.0
2,1,2.0,1.0,1.465,0.964,1,0.0,22,2,8.0,7.0,976.0,283.0,2.0
2,1,2.0,1.0,1.151,1.328,1,0.0,23,2,9.0,9.0,120.0,1042.0,1.0
2,1,2.0,1.0,1.158,1.734,1,0.0,24,2,9.0,9.0,2212.0,100.0,2.0
2,1,2.0,1.0,0.754,1.484,1,0.0,25,2,8.0,6.0,896.0,100.0,2.0
2,2,2.0,1.0,1.377,1.605,1,1.0,26,2,9.0,9.0,653.0,653.0,0.0
2,2,1.0,1.0,1.851,2.865,1,0.0,27,2,7.0,7.0,212.0,212.0,0.0
2,2,1.0,1.0,1.887,1.063,1,0.0,28,2,7.0,7.0,920.0,920.0,0.0
2,1,1.0,1.0,0.85,1.219,1,1.0,29,2,8.0,6.0,175.0,160.0,2.0
2,1,1.0,1.0,0.92,2.029,1,1.0,30,2,8.0,6.0,455.0,457.0,2.0
2,1,1.0,1.0,0.957,1.877,1,1.0,31,2,8.0,7.0,962.0,408.0,2.0
2,2,1.0,1.0,0.646,1.859,1,0.0,32,2,6.0,6.0,422.0,422.0,0.0
3,1,2.0,3.0,1.05,1.858,1,0.0,18,2,8.0,7.0,962.0,408.0,2.0
3,2,2.0,3.0,0.616,1.306,1,1.0,19,2,7.0,7.0,248.0,248.0,0.0
3,1,1.0,3.0,1.163,1.561,1,1.0,20,2,8.0,7.0,976.0,283.0,2.0
3,2,2.0,3.0,0.718,1.414,1,1.0,21,2,8.0,8.0,1026.0,1026.0,0.0
3,1,2.0,3.0,2.248,1.34,1,0.0,22,2,9.0,9.0,2212.0,100.0,2.0
3,2,2.0,3.0,0.992,1.048,1,1.0,23,2,6.0,6.0,422.0,422.0,0.0
3,2,1.0,3.0,1.068,1.378,1,0.0,24,2,8.0,8.0,2183.0,2183.0,0.0
3,1,NAN,1.0,NAN,0.523,1,NAN,25,2,8.0,6.0,896.0,100.0,2.0
3,2,2.0,3.0,0.543,0.713,1,1.0,26,2,8.0,8.0,328.0,328.0,0.0
3,1,2.0,3.0,0.827,1.974,1,0.0,27,2,8.0,6.0,175.0,160.0,2.0
3,2,2.0,3.0,0.776,1.253,1,1.0,28,2,9.0,9.0,653.0,653.0,0.0
3,2,2.0,3.0,0.538,1.622,1,1.0,29,2,7.0,7.0,212.0,212.0,0.0
3,1,2.0,4.0,1.435,0.241,1,0.0,30,2,9.0,9.0,120.0,1042.0,1.0
3,2,2.0,3.0,0.552,1.487,1,1.0,31,2,7.0,7.0,920.0,920.0,0.0
3,1,2.0,3.0,1.563,0.99,1,0.0,32,2,8.0,6.0,455.0,457.0,2.0
4,1,1.0,2.0,1.003,1.701,1,1.0,18,2,8.0,6.0,175.0,160.0,2.0
4,1,2.0,1.0,0.938,1.575,1,0.0,19,2,8.0,6.0,455.0,457.0,2.0
4,1,2.0,2.0,1.273,1.399,1,0.0,20,2,9.0,9.0,2212.0,100.0,2.0
4,2,2.0,3.0,1.364,2.174,1,1.0,21,2,8.0,8.0,2183.0,2183.0,0.0
4,2,2.0,2.0,0.992,1.607,1,1.0,22,2,6.0,6.0,422.0,422.0,0.0
4,2,2.0,2.0,0.904,1.775,1,1.0,23,2,7.0,7.0,248.0,248.0,0.0
4,2,2.0,2.0,0.696,1.448,1,1.0,24,2,7.0,7.0,920.0,920.0,0.0
4,2,2.0,2.0,1.038,1.43,1,1.0,25,2,9.0,9.0,653.0,653.0,0.0
4,2,2.0,2.0,0.808,1.631,1,1.0,26,2,8.0,8.0,1026.0,1026.0,0.0
4,1,1.0,2.0,1.309,1.48,1,1.0,27,2,9.0,9.0,120.0,1042.0,1.0
4,1,2.0,2.0,1.03,1.272,1,0.0,28,2,8.0,6.0,896.0,100.0,2.0
4,2,2.0,2.0,0.8,1.508,1,1.0,29,2,7.0,7.0,212.0,212.0,0.0
4,1,1.0,2.0,0.77,1.899,1,1.0,30,2,8.0,7.0,976.0,283.0,2.0
4,2,2.0,2.0,0.84,1.592,1,1.0,31,2,8.0,8.0,328.0,328.0,0.0
4,1,1.0,2.0,1.297,1.635,1,1.0,32,2,8.0,7.0,962.0,408.0,2.0
5,1,1.0,3.0,0.653,3.129,1,1.0,18,2,8.0,7.0,976.0,283.0,2.0
5,2,1.0,3.0,1.182,1.962,1,0.0,19,2,8.0,8.0,328.0,328.0,0.0
5,1,2.0,3.0,1.0,1.574,1,0.0,20,2,9.0,9.0,120.0,1042.0,1.0
5,1,1.0,3.0,0.644,1.785,1,1.0,21,2,8.0,6.0,175.0,160.0,2.0
5,2,2.0,3.0,1.556,1.717,1,1.0,22,2,8.0,8.0,1026.0,1026.0,0.0
5,2,2.0,3.0,0.618,1.292,1,1.0,23,2,6.0,6.0,422.0,422.0,0.0
5,2,2.0,3.0,0.47,1.306,1,1.0,24,2,8.0,8.0,2183.0,2183.0,0.0
5,2,1.0,3.0,1.691,1.243,1,0.0,25,2,7.0,7.0,248.0,248.0,0.0
5,1,1.0,2.0,1.122,1.616,1,1.0,26,2,8.0,7.0,962.0,408.0,2.0
5,1,1.0,2.0,0.938,3.072,1,1.0,27,2,8.0,6.0,455.0,457.0,2.0
5,2,1.0,2.0,0.926,1.777,1,0.0,28,2,9.0,9.0,653.0,653.0,0.0
5,1,1.0,2.0,0.993,1.829,1,1.0,29,2,9.0,9.0,2212.0,100.0,2.0
5,1,1.0,3.0,0.835,2.549,1,1.0,30,2,8.0,6.0,896.0,100.0,2.0
5,2,2.0,3.0,1.741,1.743,1,1.0,31,2,7.0,7.0,212.0,212.0,0.0
5,2,2.0,3.0,1.431,2.036,1,1.0,32,2,7.0,7.0,920.0,920.0,0.0
6,1,1.0,2.0,1.347,1.599,1,1.0,18,2,9.0,9.0,120.0,1042.0,1.0
6,2,2.0,3.0,1.23,2.897,1,1.0,19,2,8.0,8.0,1026.0,1026.0,0.0
6,2,1.0,2.0,1.144,1.539,1,0.0,20,2,6.0,6.0,422.0,422.0,0.0
6,2,2.0,2.0,1.421,1.964,1,1.0,21,2,8.0,8.0,2183.0,2183.0,0.0
6,2,1.0,1.0,1.106,1.839,1,0.0,22,2,7.0,7.0,248.0,248.0,0.0
6,2,1.0,2.0,1.142,2.769,1,0.0,23,2,8.0,8.0,328.0,328.0,0.0
6,1,1.0,1.0,2.55,2.152,1,1.0,24,2,8.0,6.0,896.0,100.0,2.0
6,1,1.0,4.0,1.111,2.261,1,1.0,25,2,8.0,7.0,976.0,283.0,2.0
6,2,1.0,2.0,1.232,2.333,1,0.0,26,2,9.0,9.0,653.0,653.0,0.0
6,1,1.0,2.0,1.403,1.625,1,1.0,27,2,8.0,6.0,175.0,160.0,2.0
6,2,1.0,1.0,0.936,1.839,1,0.0,28,2,7.0,7.0,212.0,212.0,0.0
6,1,2.0,4.0,1.96,2.21,1,0.0,29,2,8.0,6.0,455.0,457.0,2.0
6,2,2.0,2.0,1.558,1.294,1,1.0,30,2,7.0,7.0,920.0,920.0,0.0
6,1,1.0,2.0,1.206,1.789,1,1.0,31,2,9.0,9.0,2212.0,100.0,2.0
6,1,1.0,3.0,1.035,2.462,1,1.0,32,2,8.0,7.0,962.0,408.0,2.0
7,2,2.0,4.0,0.846,1.415,1,1.0,18,2,8.0,8.0,2183.0,2183.0,0.0
7,1,1.0,3.0,0.653,1.148,1,1.0,19,2,8.0,7.0,962.0,408.0,2.0
7,1,1.0,4.0,0.373,2.007,1,1.0,20,2,8.0,6.0,175.0,160.0,2.0
7,2,2.0,4.0,2.236,1.647,1,1.0,21,2,7.0,7.0,920.0,920.0,0.0
7,2,NAN,4.0,NAN,1.719,1,NAN,22,2,6.0,6.0,422.0,422.0,0.0
7,2,2.0,4.0,0.293,1.337,1,1.0,23,2,7.0,7.0,248.0,248.0,0.0
7,1,1.0,4.0,1.184,1.689,1,1.0,24,2,8.0,7.0,976.0,283.0,2.0
7,2,2.0,4.0,1.499,1.077,1,1.0,25,2,7.0,7.0,212.0,212.0,0.0
7,1,1.0,4.0,1.233,0.633,1,1.0,26,2,9.0,9.0,2212.0,100.0,2.0
7,2,2.0,4.0,1.31,0.815,1,1.0,27,2,9.0,9.0,653.0,653.0,0.0
7,1,1.0,4.0,0.535,1.164,1,1.0,28,2,9.0,9.0,120.0,1042.0,1.0
7,1,1.0,4.0,0.414,0.675,1,1.0,29,2,8.0,6.0,896.0,100.0,2.0
7,2,2.0,4.0,1.719,2.566,1,1.0,30,2,8.0,8.0,1026.0,1026.0,0.0
7,2,2.0,4.0,0.963,1.217,1,1.0,31,2,8.0,8.0,328.0,328.0,0.0
7,1,1.0,4.0,0.382,0.516,1,1.0,32,2,8.0,6.0,455.0,457.0,2.0
8,1,2.0,1.0,2.371,2.201,1,0.0,18,2,9.0,9.0,120.0,1042.0,1.0
8,1,1.0,1.0,1.497,1.773,1,1.0,19,2,8.0,6.0,896.0,100.0,2.0
8,2,1.0,2.0,2.091,1.575,1,0.0,20,2,9.0,9.0,653.0,653.0,0.0
8,1,1.0,1.0,1.738,1.009,1,1.0,21,2,8.0,6.0,455.0,457.0,2.0
8,1,2.0,1.0,2.108,0.894,1,0.0,22,2,9.0,9.0,2212.0,100.0,2.0
8,2,2.0,2.0,1.268,1.137,1,1.0,23,2,6.0,6.0,422.0,422.0,0.0
8,1,1.0,2.0,1.494,0.988,1,1.0,24,2,8.0,7.0,962.0,408.0,2.0
8,2,2.0,3.0,2.305,1.764,1,1.0,25,2,7.0,7.0,920.0,920.0,0.0
8,2,2.0,2.0,0.987,2.64,1,1.0,26,2,8.0,8.0,1026.0,1026.0,0.0
8,2,2.0,1.0,1.95,0.96,1,1.0,27,2,7.0,7.0,212.0,212.0,0.0
8,1,1.0,4.0,1.002,0.571,1,1.0,28,2,8.0,7.0,976.0,283.0,2.0
8,2,2.0,1.0,1.161,1.471,1,1.0,29,2,7.0,7.0,248.0,248.0,0.0
8,1,1.0,3.0,1.451,0.423,1,1.0,30,2,8.0,6.0,175.0,160.0,2.0
8,2,2.0,1.0,0.934,1.902,1,1.0,31,2,8.0,8.0,2183.0,2183.0,0.0
8,2,2.0,2.0,1.487,0.828,1,1.0,32,2,8.0,8.0,328.0,328.0,0.0
9,2,1.0,2.0,2.052,0.586,1,0.0,18,2,8.0,8.0,2183.0,2183.0,0.0
9,1,2.0,2.0,0.181,0.557,1,0.0,19,2,8.0,6.0,175.0,160.0,2.0
9,2,1.0,1.0,1.19,0.358,1,0.0,20,2,6.0,6.0,422.0,422.0,0.0
9,2,1.0,2.0,2.075,1.321,1,0.0,21,2,9.0,9.0,653.0,653.0,0.0
9,2,2.0,2.0,0.88,0.526,1,1.0,22,2,8.0,8.0,328.0,328.0,0.0
9,1,2.0,2.0,1.11,0.824,1,0.0,23,2,9.0,9.0,120.0,1042.0,1.0
9,1,1.0,2.0,1.326,1.572,1,1.0,24,2,8.0,6.0,455.0,457.0,2.0
9,1,2.0,2.0,2.469,1.61,1,0.0,25,2,9.0,9.0,2212.0,100.0,2.0
9,2,1.0,2.0,1.618,0.662,1,0.0,26,2,7.0,7.0,212.0,212.0,0.0
9,1,1.0,2.0,1.26,1.952,1,1.0,27,2,8.0,7.0,962.0,408.0,2.0
9,2,2.0,2.0,1.146,0.671,1,1.0,28,2,7.0,7.0,248.0,248.0,0.0
9,2,2.0,2.0,0.84,0.591,1,1.0,29,2,8.0,8.0,1026.0,1026.0,0.0
9,1,2.0,2.0,1.108,1.438,1,0.0,30,2,8.0,6.0,896.0,100.0,2.0
9,1,1.0,2.0,0.997,1.594,1,1.0,31,2,8.0,7.0,976.0,283.0,2.0
9,2,2.0,2.0,0.147,1.444,1,1.0,32,2,7.0,7.0,920.0,920.0,0.0
10,1,2.0,2.0,0.73,0.79,1,0.0,18,2,9.0,9.0,2212.0,100.0,2.0
10,1,1.0,1.0,0.851,2.215,1,1.0,19,2,8.0,6.0,175.0,160.0,2.0
10,1,2.0,2.0,0.783,1.146,1,0.0,20,2,9.0,9.0,120.0,1042.0,1.0
10,1,1.0,3.0,0.826,2.091,1,1.0,21,2,8.0,6.0,896.0,100.0,2.0
10,2,2.0,2.0,1.962,1.108,1,1.0,22,2,6.0,6.0,422.0,422.0,0.0
10,2,2.0,2.0,0.392,0.772,1,1.0,23,2,7.0,7.0,248.0,248.0,0.0
10,1,1.0,2.0,1.95,1.411,1,1.0,24,2,8.0,7.0,976.0,283.0,2.0
10,2,2.0,1.0,0.611,1.418,1,1.0,25,2,7.0,7.0,920.0,920.0,0.0
10,2,2.0,2.0,1.341,1.126,1,1.0,26,2,7.0,7.0,212.0,212.0,0.0
10,1,1.0,2.0,1.201,0.93,1,1.0,27,2,8.0,6.0,455.0,457.0,2.0
10,2,1.0,1.0,2.38,0.574,1,0.0,28,2,9.0,9.0,653.0,653.0,0.0
10,2,2.0,1.0,0.87,1.401,1,1.0,29,2,8.0,8.0,1026.0,1026.0,0.0
10,1,2.0,1.0,1.085,0.975,1,0.0,30,2,8.0,7.0,962.0,408.0,2.0
10,2,2.0,1.0,1.309,0.509,1,1.0,31,2,8.0,8.0,328.0,328.0,0.0
10,2,2.0,1.0,0.58,0.95,1,1.0,32,2,8.0,8.0,2183.0,2183.0,0.0
11,1,1.0,1.0,1.006,0.805,1,1.0,18,2,9.0,9.0,2212.0,100.0,2.0
11,1,2.0,1.0,1.518,0.792,1,0.0,19,2,8.0,6.0,455.0,457.0,2.0
11,1,1.0,1.0,1.247,0.928,1,1.0,20,2,9.0,9.0,120.0,1042.0,1.0
11,2,2.0,1.0,1.828,2.189,1,1.0,21,2,8.0,8.0,1026.0,1026.0,0.0
11,1,2.0,1.0,2.256,0.938,1,0.0,22,2,8.0,6.0,896.0,100.0,2.0
11,2,1.0,4.0,2.111,1.049,1,0.0,23,2,8.0,8.0,2183.0,2183.0,0.0
11,2,2.0,4.0,2.454,1.54,1,1.0,24,2,6.0,6.0,422.0,422.0,0.0
11,2,NAN,4.0,NAN,1.532,1,NAN,25,2,7.0,7.0,920.0,920.0,0.0
11,2,2.0,1.0,1.476,1.422,1,1.0,26,2,7.0,7.0,212.0,212.0,0.0
11,1,1.0,1.0,1.164,1.17,1,1.0,27,2,8.0,7.0,962.0,408.0,2.0
11,2,2.0,4.0,2.105,1.176,1,1.0,28,2,7.0,7.0,248.0,248.0,0.0
11,2,2.0,1.0,0.739,1.011,1,1.0,29,2,9.0,9.0,653.0,653.0,0.0
11,2,2.0,1.0,0.779,0.777,1,1.0,30,2,8.0,8.0,328.0,328.0,0.0
11,1,2.0,1.0,0.699,1.777,1,0.0,31,2,8.0,6.0,175.0,160.0,2.0
11,1,1.0,1.0,1.514,0.788,1,1.0,32,2,8.0,7.0,976.0,283.0,2.0
12,2,2.0,2.0,0.842,1.294,1,1.0,18,2,7.0,7.0,248.0,248.0,0.0
12,1,2.0,2.0,0.856,0.64,1,0.0,19,2,8.0,6.0,896.0,100.0,2.0
12,1,NAN,2.0,NAN,0.653,1,NAN,20,2,8.0,7.0,976.0,283.0,2.0
12,2,2.0,2.0,0.689,0.597,1,1.0,21,2,7.0,7.0,212.0,212.0,0.0
12,1,2.0,2.0,0.566,0.654,1,0.0,22,2,9.0,9.0,2212.0,100.0,2.0
12,1,2.0,2.0,0.72,0.615,1,0.0,23,2,8.0,6.0,175.0,160.0,2.0
12,1,2.0,2.0,0.515,0.683,1,0.0,24,2,8.0,6.0,455.0,457.0,2.0
12,1,NAN,2.0,NAN,0.55,1,NAN,25,2,8.0,7.0,962.0,408.0,2.0
12,2,2.0,2.0,2.99,0.578,1,1.0,26,2,6.0,6.0,422.0,422.0,0.0
12,1,2.0,2.0,1.707,0.706,1,0.0,27,2,9.0,9.0,120.0,1042.0,1.0
12,2,NAN,2.0,NAN,1.619,1,NAN,28,2,7.0,7.0,920.0,920.0,0.0
12,2,2.0,2.0,1.292,1.274,1,1.0,29,2,9.0,9.0,653.0,653.0,0.0
12,2,2.0,2.0,0.816,0.628,1,1.0,30,2,8.0,8.0,328.0,328.0,0.0
12,2,2.0,2.0,1.194,0.555,1,1.0,31,2,8.0,8.0,2183.0,2183.0,0.0
12,2,2.0,2.0,1.791,1.862,1,1.0,32,2,8.0,8.0,1026.0,1026.0,0.0
13,2,2.0,4.0,0.772,1.595,1,1.0,18,2,7.0,7.0,920.0,920.0,0.0
13,2,2.0,1.0,2.511,1.446,1,1.0,19,2,8.0,8.0,1026.0,1026.0,0.0
13,2,NAN,1.0,NAN,1.375,1,NAN,20,2,9.0,9.0,653.0,653.0,0.0
13,2,1.0,4.0,2.966,0.886,1,0.0,21,2,6.0,6.0,422.0,422.0,0.0
13,1,1.0,1.0,0.917,1.207,1,1.0,22,2,8.0,6.0,896.0,100.0,2.0
13,2,NAN,4.0,NAN,1.481,1,NAN,23,2,8.0,8.0,328.0,328.0,0.0
13,2,1.0,2.0,0.843,3.277,1,0.0,24,2,7.0,7.0,248.0,248.0,0.0
13,2,1.0,2.0,2.737,1.373,1,0.0,25,2,8.0,8.0,2183.0,2183.0,0.0
13,1,1.0,4.0,2.974,1.343,1,1.0,26,2,8.0,7.0,976.0,283.0,2.0
13,1,1.0,1.0,1.572,1.387,1,1.0,27,2,9.0,9.0,2212.0,100.0,2.0
13,1,1.0,1.0,1.35,1.347,1,1.0,28,2,8.0,6.0,455.0,457.0,2.0
13,1,1.0,4.0,1.093,0.937,1,1.0,29,2,9.0,9.0,120.0,1042.0,1.0
13,1,1.0,2.0,1.037,2.86,1,1.0,30,2,8.0,6.0,175.0,160.0,2.0
13,1,1.0,3.0,0.885,2.18,1,1.0,31,2,8.0,7.0,962.0,408.0,2.0
13,2,NAN,2.0,NAN,2.294,1,NAN,32,2,7.0,7.0,212.0,212.0,0.0
14,1,1.0,1.0,1.082,0.785,1,1.0,18,2,8.0,6.0,175.0,160.0,2.0
14,1,2.0,1.0,0.911,0.968,1,0.0,19,2,9.0,9.0,120.0,1042.0,1.0
14,2,1.0,1.0,1.582,0.633,1,0.0,20,2,8.0,8.0,2183.0,2183.0,0.0
14,2,2.0,3.0,0.69,1.147,1,1.0,21,2,7.0,7.0,920.0,920.0,0.0
14,1,1.0,1.0,0.91,0.435,1,1.0,22,2,8.0,6.0,896.0,100.0,2.0
14,2,2.0,2.0,1.572,1.405,1,1.0,23,2,6.0,6.0,422.0,422.0,0.0
14,1,2.0,1.0,2.771,0.688,1,0.0,24,2,9.0,9.0,2212.0,100.0,2.0
14,2,2.0,1.0,1.42,0.742,1,1.0,25,2,8.0,8.0,1026.0,1026.0,0.0
14,2,1.0,1.0,1.347,0.763,1,0.0,26,2,7.0,7.0,248.0,248.0,0.0
14,1,1.0,1.0,0.809,1.066,1,1.0,27,2,8.0,7.0,976.0,283.0,2.0
14,2,2.0,1.0,0.956,1.558,1,1.0,28,2,7.0,7.0,212.0,212.0,0.0
14,2,2.0,1.0,0.913,0.704,1,1.0,29,2,8.0,8.0,328.0,328.0,0.0
14,1,1.0,1.0,0.871,0.719,1,1.0,30,2,8.0,6.0,455.0,457.0,2.0
14,2,1.0,1.0,1.035,0.726,1,0.0,31,2,9.0,9.0,653.0,653.0,0.0
14,1,1.0,1.0,0.809,0.699,1,1.0,32,2,8.0,7.0,962.0,408.0,2.0
15,1,1.0,2.0,1.367,1.057,1,1.0,18,2,8.0,6.0,175.0,160.0,2.0
15,1,2.0,2.0,2.343,0.937,1,0.0,19,2,9.0,9.0,120.0,1042.0,1.0
15,2,2.0,2.0,1.403,1.123,1,1.0,20,2,7.0,7.0,920.0,920.0,0.0
15,2,NAN,2.0,NAN,0.686,1,NAN,21,2,8.0,8.0,1026.0,1026.0,0.0
15,1,1.0,2.0,1.215,0.844,1,1.0,22,2,8.0,7.0,976.0,283.0,2.0
15,1,1.0,1.0,1.573,1.067,1,1.0,23,2,9.0,9.0,2212.0,100.0,2.0
15,2,2.0,2.0,1.174,1.602,1,1.0,24,2,8.0,8.0,328.0,328.0,0.0
15,1,1.0,1.0,1.603,0.948,1,1.0,25,2,8.0,7.0,962.0,408.0,2.0
15,2,1.0,1.0,1.784,1.103,1,0.0,26,2,6.0,6.0,422.0,422.0,0.0
15,1,1.0,1.0,1.677,0.925,1,1.0,27,2,8.0,6.0,896.0,100.0,2.0
15,2,NAN,1.0,NAN,1.365,1,NAN,28,2,8.0,8.0,2183.0,2183.0,0.0
15,2,1.0,2.0,1.383,1.769,1,0.0,29,2,9.0,9.0,653.0,653.0,0.0
15,1,2.0,2.0,0.789,0.667,1,0.0,30,2,8.0,6.0,455.0,457.0,2.0
15,2,2.0,2.0,0.976,0.929,1,1.0,31,2,7.0,7.0,212.0,212.0,0.0
15,2,2.0,2.0,1.439,0.678,1,1.0,32,2,7.0,7.0,248.0,248.0,0.0
16,1,1.0,2.0,0.841,0.778,1,1.0,18,2,9.0,9.0,120.0,1042.0,1.0
16,2,1.0,2.0,0.702,1.796,1,0.0,19,2,8.0,8.0,2183.0,2183.0,0.0
16,2,1.0,3.0,1.089,2.31,1,0.0,20,2,8.0,8.0,1026.0,1026.0,0.0
16,2,2.0,2.0,0.742,0.93,1,1.0,21,2,7.0,7.0,248.0,248.0,0.0
16,2,2.0,3.0,0.89,1.339,1,1.0,22,2,7.0,7.0,212.0,212.0,0.0
16,2,2.0,2.0,0.652,0.718,1,1.0,23,2,8.0,8.0,328.0,328.0,0.0
16,1,2.0,1.0,0.888,0.903,1,0.0,24,2,8.0,7.0,962.0,408.0,2.0
16,2,1.0,2.0,0.969,0.889,1,0.0,25,2,9.0,9.0,653.0,653.0,0.0
16,1,2.0,2.0,0.735,2.957,1,0.0,26,2,8.0,6.0,175.0,160.0,2.0
16,2,2.0,3.0,0.454,1.316,1,1.0,27,2,7.0,7.0,920.0,920.0,0.0
16,1,1.0,4.0,0.5,0.905,1,1.0,28,2,8.0,7.0,976.0,283.0,2.0
16,1,1.0,4.0,1.11,0.69,1,1.0,29,2,8.0,6.0,455.0,457.0,2.0
16,1,1.0,1.0,1.256,1.769,1,1.0,30,2,9.0,9.0,2212.0,100.0,2.0
16,2,2.0,2.0,1.29,1.399,1,1.0,31,2,6.0,6.0,422.0,422.0,0.0
16,1,1.0,2.0,0.932,2.04,1,1.0,32,2,8.0,6.0,896.0,100.0,2.0
17,1,1.0,2.0,1.235,0.737,1,1.0,18,2,8.0,6.0,455.0,457.0,2.0
17,1,1.0,2.0,0.5,1.452,1,1.0,19,2,8.0,6.0,175.0,160.0,2.0
17,1,1.0,2.0,1.887,1.114,1,1.0,20,2,9.0,9.0,2212.0,100.0,2.0
17,2,1.0,2.0,0.779,1.194,1,0.0,21,2,9.0,9.0,653.0,653.0,0.0
17,2,1.0,2.0,0.643,0.869,1,0.0,22,2,8.0,8.0,1026.0,1026.0,0.0
17,2,1.0,2.0,1.266,1.299,1,0.0,23,2,7.0,7.0,920.0,920.0,0.0
17,1,1.0,2.0,0.643,1.065,1,1.0,24,2,8.0,7.0,976.0,283.0,2.0
17,1,1.0,3.0,0.586,1.221,1,1.0,25,2,8.0,6.0,896.0,100.0,2.0
17,1,1.0,3.0,0.592,2.462,1,1.0,26,2,9.0,9.0,120.0,1042.0,1.0
17,2,2.0,4.0,0.37,0.981,1,1.0,27,2,8.0,8.0,2183.0,2183.0,0.0
17,2,2.0,3.0,1.98,0.991,1,1.0,28,2,7.0,7.0,212.0,212.0,0.0
17,2,1.0,1.0,1.067,1.257,1,0.0,29,2,8.0,8.0,328.0,328.0,0.0
17,1,1.0,2.0,0.733,0.892,1,1.0,30,2,8.0,7.0,962.0,408.0,2.0
17,2,2.0,4.0,0.278,0.685,1,1.0,31,2,6.0,6.0,422.0,422.0,0.0
17,2,2.0,4.0,0.246,0.951,1,1.0,32,2,7.0,7.0,248.0,248.0,0.0
18,1,2.0,4.0,2.347,0.892,1,0.0,18,2,8.0,8.0,248.0,100.0,2.0
18,2,2.0,4.0,2.191,2.109,1,1.0,19,2,8.0,8.0,134.0,134.0,0.0
18,1,1.0,3.0,2.043,1.884,1,1.0,20,2,9.0,9.0,707.0,889.0,1.0
18,2,1.0,2.0,1.844,1.181,1,0.0,21,2,8.0,8.0,594.0,594.0,0.0
18,1,2.0,3.0,1.062,1.064,1,0.0,22,2,9.0,10.0,653.0,6216.0,2.0
18,1,1.0,3.0,1.917,2.309,1,1.0,23,2,8.0,7.0,1124.0,100.0,2.0
18,2,2.0,4.0,1.134,0.842,1,1.0,24,2,8.0,8.0,175.0,175.0,0.0
18,2,2.0,1.0,1.604,1.289,1,1.0,25,2,8.0,8.0,455.0,455.0,0.0
18,2,2.0,3.0,1.292,2.061,1,1.0,26,2,8.0,8.0,896.0,896.0,0.0
18,1,1.0,4.0,1.249,0.89,1,1.0,27,2,7.0,6.0,613.0,408.0,1.0
18,1,1.0,1.0,2.111,1.29,1,1.0,28,2,8.0,6.0,1026.0,345.0,2.0
18,1,1.0,4.0,1.567,0.527,1,1.0,29,2,7.0,7.0,126.0,126.0,1.0
18,2,1.0,4.0,2.196,0.664,1,0.0,30,2,8.0,8.0,104.0,104.0,0.0
18,2,2.0,1.0,1.457,2.502,1,1.0,31,2,8.0,8.0,857.0,857.0,0.0
18,2,2.0,2.0,2.35,1.377,1,1.0,32,2,8.0,8.0,3412.0,3412.0,0.0
19,2,2.0,1.0,2.285,1.735,1,1.0,18,2,8.0,8.0,175.0,175.0,0.0
19,2,2.0,1.0,1.987,2.178,1,1.0,19,2,8.0,8.0,594.0,594.0,0.0
19,2,2.0,1.0,0.876,1.917,1,1.0,20,2,8.0,8.0,134.0,134.0,0.0
19,1,2.0,4.0,2.746,0.918,1,0.0,21,2,7.0,6.0,613.0,408.0,1.0
19,1,1.0,2.0,1.221,1.465,1,1.0,22,2,8.0,8.0,248.0,100.0,2.0
19,2,1.0,1.0,2.442,2.088,1,0.0,23,2,8.0,8.0,3412.0,3412.0,0.0
19,1,1.0,1.0,1.095,2.054,1,1.0,24,2,9.0,10.0,653.0,6216.0,2.0
19,1,1.0,1.0,1.099,1.058,1,1.0,25,2,8.0,7.0,1124.0,100.0,2.0
19,2,2.0,1.0,1.683,1.831,1,1.0,26,2,8.0,8.0,104.0,104.0,0.0
19,1,1.0,1.0,1.862,1.468,1,1.0,27,2,8.0,6.0,1026.0,345.0,2.0
19,1,1.0,4.0,0.914,0.982,1,1.0,28,2,7.0,7.0,126.0,126.0,1.0
19,2,1.0,1.0,0.715,1.523,1,0.0,29,2,8.0,8.0,857.0,857.0,0.0
19,2,1.0,1.0,0.72,1.447,1,0.0,30,2,8.0,8.0,896.0,896.0,0.0
19,1,1.0,1.0,2.64,1.628,1,1.0,31,2,9.0,9.0,707.0,889.0,1.0
19,2,1.0,1.0,1.182,0.747,1,0.0,32,2,8.0,8.0,455.0,455.0,0.0
20,1,2.0,1.0,1.158,2.511,1,0.0,18,2,9.0,10.0,653.0,6216.0,2.0
20,2,2.0,1.0,1.285,0.785,1,1.0,19,2,8.0,8.0,3412.0,3412.0,0.0
20,1,1.0,4.0,1.766,4.479,1,1.0,20,2,7.0,7.0,126.0,126.0,1.0
20,2,1.0,1.0,1.491,4.046,1,0.0,21,2,8.0,8.0,896.0,896.0,0.0
20,2,2.0,1.0,1.794,0.919,1,1.0,22,2,8.0,8.0,594.0,594.0,0.0
20,2,2.0,1.0,1.132,1.039,1,1.0,23,2,8.0,8.0,175.0,175.0,0.0
20,2,2.0,4.0,0.681,2.617,1,1.0,24,2,8.0,8.0,857.0,857.0,0.0
20,2,2.0,1.0,1.056,0.892,1,1.0,25,2,8.0,8.0,455.0,455.0,0.0
20,2,1.0,1.0,1.025,0.917,1,0.0,26,2,8.0,8.0,104.0,104.0,0.0
20,1,1.0,1.0,1.688,0.863,1,1.0,27,2,9.0,9.0,707.0,889.0,1.0
20,1,1.0,4.0,1.329,1.173,1,1.0,28,2,8.0,7.0,1124.0,100.0,2.0
20,1,2.0,4.0,0.781,1.125,1,0.0,29,2,7.0,6.0,613.0,408.0,1.0
20,1,1.0,1.0,1.561,1.205,1,1.0,30,2,8.0,6.0,1026.0,345.0,2.0
20,2,NAN,1.0,NAN,1.321,1,NAN,31,2,8.0,8.0,134.0,134.0,0.0
20,1,1.0,3.0,1.366,4.254,1,1.0,32,2,8.0,8.0,248.0,100.0,2.0
21,2,2.0,3.0,1.184,0.352,1,1.0,18,2,8.0,8.0,175.0,175.0,0.0
21,2,2.0,2.0,1.601,1.072,1,1.0,19,2,8.0,8.0,594.0,594.0,0.0
21,1,2.0,2.0,1.77,0.983,1,0.0,20,2,8.0,6.0,1026.0,345.0,2.0
21,1,1.0,4.0,1.025,3.449,1,1.0,21,2,7.0,7.0,126.0,126.0,1.0
21,2,2.0,2.0,1.023,0.648,1,1.0,22,2,8.0,8.0,455.0,455.0,0.0
21,1,2.0,2.0,1.369,1.59,1,0.0,23,2,8.0,8.0,248.0,100.0,2.0
21,1,1.0,2.0,1.374,1.661,1,1.0,24,2,9.0,9.0,707.0,889.0,1.0
21,2,2.0,2.0,1.211,1.257,1,1.0,25,2,8.0,8.0,134.0,134.0,0.0
21,2,2.0,3.0,1.293,1.693,1,1.0,26,2,8.0,8.0,3412.0,3412.0,0.0
21,2,2.0,2.0,1.615,1.652,1,1.0,27,2,8.0,8.0,104.0,104.0,0.0
21,1,2.0,2.0,1.45,2.01,1,0.0,28,2,8.0,7.0,1124.0,100.0,2.0
21,1,2.0,2.0,1.889,1.367,1,0.0,29,2,9.0,10.0,653.0,6216.0,2.0
21,2,2.0,1.0,1.719,1.154,1,1.0,30,2,8.0,8.0,896.0,896.0,0.0
21,1,2.0,3.0,0.78,0.922,1,0.0,31,2,7.0,6.0,613.0,408.0,1.0
21,2,1.0,2.0,2.377,1.128,1,0.0,32,2,8.0,8.0,857.0,857.0,0.0
22,1,2.0,4.0,0.527,0.646,1,0.0,18,2,8.0,8.0,248.0,100.0,2.0
22,1,1.0,4.0,0.258,0.563,1,1.0,19,2,9.0,10.0,653.0,6216.0,2.0
22,2,2.0,4.0,0.454,0.5,1,1.0,20,2,8.0,8.0,455.0,455.0,0.0
22,1,1.0,4.0,0.905,0.573,1,1.0,21,2,7.0,6.0,613.0,408.0,1.0
22,2,2.0,4.0,1.045,0.827,1,1.0,22,2,8.0,8.0,104.0,104.0,0.0
22,1,1.0,4.0,0.811,0.487,1,1.0,23,2,7.0,7.0,126.0,126.0,1.0
22,1,1.0,3.0,1.375,0.465,1,1.0,24,2,8.0,7.0,1124.0,100.0,2.0
22,2,2.0,3.0,0.721,0.215,1,1.0,25,2,8.0,8.0,175.0,175.0,0.0
22,2,2.0,3.0,1.377,0.843,1,1.0,26,2,8.0,8.0,594.0,594.0,0.0
22,2,2.0,2.0,0.791,0.524,1,1.0,27,2,8.0,8.0,896.0,896.0,0.0
22,2,2.0,2.0,0.91,0.461,1,1.0,28,2,8.0,8.0,857.0,857.0,0.0
22,1,1.0,2.0,0.565,1.063,1,1.0,29,2,8.0,6.0,1026.0,345.0,2.0
22,2,2.0,4.0,0.22,0.629,1,1.0,30,2,8.0,8.0,134.0,134.0,0.0
22,2,1.0,2.0,1.171,1.286,1,0.0,31,2,8.0,8.0,3412.0,3412.0,0.0
22,1,1.0,1.0,0.555,0.519,1,1.0,32,2,9.0,9.0,707.0,889.0,1.0
23,2,1.0,1.0,0.696,0.768,1,0.0,18,2,8.0,8.0,896.0,896.0,0.0
23,1,2.0,1.0,0.815,0.821,1,0.0,19,2,8.0,8.0,248.0,100.0,2.0
23,1,1.0,3.0,1.247,0.556,1,1.0,20,2,7.0,6.0,613.0,408.0,1.0
23,2,2.0,1.0,0.934,0.704,1,1.0,21,2,8.0,8.0,857.0,857.0,0.0
23,2,2.0,1.0,0.738,0.989,1,1.0,22,2,8.0,8.0,3412.0,3412.0,0.0
23,2,1.0,2.0,0.54,0.837,1,0.0,23,2,8.0,8.0,134.0,134.0,0.0
23,1,2.0,2.0,1.056,0.777,1,0.0,24,2,9.0,9.0,707.0,889.0,1.0
23,2,2.0,2.0,0.979,1.112,1,1.0,25,2,8.0,8.0,175.0,175.0,0.0
23,1,1.0,2.0,0.739,1.106,1,1.0,26,2,7.0,7.0,126.0,126.0,1.0
23,2,1.0,2.0,0.904,0.698,1,0.0,27,2,8.0,8.0,104.0,104.0,0.0
23,1,1.0,2.0,0.662,0.841,1,1.0,28,2,8.0,6.0,1026.0,345.0,2.0
23,1,1.0,1.0,0.942,1.08,1,1.0,29,2,9.0,10.0,653.0,6216.0,2.0
23,2,1.0,2.0,0.775,0.819,1,0.0,30,2,8.0,8.0,455.0,455.0,0.0
23,1,1.0,2.0,0.55,0.763,1,1.0,31,2,8.0,7.0,1124.0,100.0,2.0
23,2,2.0,2.0,1.214,1.773,1,1.0,32,2,8.0,8.0,594.0,594.0,0.0
24,2,2.0,3.0,0.757,1.129,1,1.0,18,2,8.0,8.0,175.0,175.0,0.0
24,2,2.0,3.0,1.089,1.199,1,1.0,19,2,8.0,8.0,134.0,134.0,0.0
24,2,2.0,3.0,0.684,1.467,1,1.0,20,2,8.0,8.0,455.0,455.0,0.0
24,1,NAN,3.0,NAN,1.116,1,NAN,21,2,8.0,6.0,1026.0,345.0,2.0
24,2,2.0,3.0,0.8,1.082,1,1.0,22,2,8.0,8.0,3412.0,3412.0,0.0
24,2,2.0,4.0,0.642,0.847,1,1.0,23,2,8.0,8.0,857.0,857.0,0.0
24,2,2.0,3.0,0.723,0.834,1,1.0,24,2,8.0,8.0,896.0,896.0,0.0
24,1,2.0,3.0,1.327,1.007,1,0.0,25,2,8.0,7.0,1124.0,100.0,2.0
24,1,2.0,4.0,2.065,1.089,1,0.0,26,2,7.0,7.0,126.0,126.0,1.0
24,2,2.0,4.0,1.298,0.632,1,1.0,27,2,8.0,8.0,104.0,104.0,0.0
24,2,2.0,4.0,0.825,1.037,1,1.0,28,2,8.0,8.0,594.0,594.0,0.0
24,1,2.0,3.0,1.169,0.818,1,0.0,29,2,9.0,9.0,707.0,889.0,1.0
24,1,2.0,3.0,0.637,1.558,1,0.0,30,2,8.0,8.0,248.0,100.0,2.0
24,1,2.0,4.0,0.71,1.621,1,0.0,31,2,9.0,10.0,653.0,6216.0,2.0
24,1,2.0,4.0,1.3,0.567,1,0.0,32,2,7.0,6.0,613.0,408.0,1.0
25,2,2.0,1.0,1.21,1.272,1,1.0,18,2,8.0,8.0,857.0,857.0,0.0
25,2,2.0,1.0,0.796,0.746,1,1.0,19,2,8.0,8.0,594.0,594.0,0.0
25,1,1.0,4.0,2.529,0.5,1,1.0,20,2,7.0,6.0,613.0,408.0,1.0
25,2,2.0,4.0,0.597,0.539,1,1.0,21,2,8.0,8.0,134.0,134.0,0.0
25,1,1.0,1.0,1.606,0.616,1,1.0,22,2,8.0,6.0,1026.0,345.0,2.0
25,1,NAN,1.0,NAN,0.972,1,NAN,23,2,8.0,8.0,248.0,100.0,2.0
25,1,1.0,1.0,2.249,0.538,1,1.0,24,2,9.0,10.0,653.0,6216.0,2.0
25,1,1.0,4.0,1.21,0.888,1,1.0,25,2,7.0,7.0,126.0,126.0,1.0
25,2,NAN,1.0,NAN,0.707,1,NAN,26,2,8.0,8.0,3412.0,3412.0,0.0
25,2,2.0,1.0,0.871,0.909,1,1.0,27,2,8.0,8.0,104.0,104.0,0.0
25,2,2.0,1.0,0.882,0.701,1,1.0,28,2,8.0,8.0,896.0,896.0,0.0
25,1,2.0,1.0,0.748,0.619,1,0.0,29,2,8.0,7.0,1124.0,100.0,2.0
25,1,2.0,1.0,1.413,0.465,1,0.0,30,2,9.0,9.0,707.0,889.0,1.0
25,2,2.0,1.0,0.756,0.578,1,1.0,31,2,8.0,8.0,455.0,455.0,0.0
25,2,2.0,1.0,0.824,0.452,1,1.0,32,2,8.0,8.0,175.0,175.0,0.0
26,1,1.0,3.0,0.854,0.853,1,1.0,18,2,9.0,9.0,707.0,889.0,1.0
26,2,2.0,4.0,0.357,0.581,1,1.0,19,2,8.0,8.0,896.0,896.0,0.0
26,1,1.0,2.0,0.657,2.702,1,1.0,20,2,7.0,7.0,126.0,126.0,1.0
26,1,1.0,1.0,0.629,2.546,1,1.0,21,2,9.0,10.0,653.0,6216.0,2.0
26,1,1.0,3.0,0.667,1.061,1,1.0,22,2,8.0,6.0,1026.0,345.0,2.0
26,1,1.0,4.0,1.599,0.753,1,1.0,23,2,7.0,6.0,613.0,408.0,1.0
26,2,2.0,3.0,0.855,1.103,1,1.0,24,2,8.0,8.0,134.0,134.0,0.0
26,2,2.0,2.0,1.965,1.699,1,1.0,25,2,8.0,8.0,104.0,104.0,0.0
26,2,2.0,3.0,1.483,1.104,1,1.0,26,2,8.0,8.0,857.0,857.0,0.0
26,2,2.0,4.0,0.503,0.471,1,1.0,27,2,8.0,8.0,455.0,455.0,0.0
26,2,2.0,4.0,0.073,0.623,1,1.0,28,2,8.0,8.0,594.0,594.0,0.0
26,1,2.0,3.0,2.226,1.136,1,0.0,29,2,8.0,8.0,248.0,100.0,2.0
26,2,2.0,2.0,0.932,0.985,1,1.0,30,2,8.0,8.0,3412.0,3412.0,0.0
26,1,1.0,4.0,0.594,0.567,1,1.0,31,2,8.0,7.0,1124.0,100.0,2.0
26,2,2.0,3.0,1.373,1.078,1,1.0,32,2,8.0,8.0,175.0,175.0,0.0
27,1,NAN,2.0,NAN,1.607,1,NAN,18,2,9.0,9.0,707.0,889.0,1.0
27,2,2.0,1.0,2.032,1.467,1,1.0,19,2,8.0,8.0,104.0,104.0,0.0
27,2,1.0,1.0,1.942,1.036,1,0.0,20,2,8.0,8.0,455.0,455.0,0.0
27,1,1.0,1.0,0.864,0.953,1,1.0,21,2,8.0,7.0,1124.0,100.0,2.0
27,2,NAN,1.0,NAN,1.174,1,NAN,22,2,8.0,8.0,594.0,594.0,0.0
27,2,1.0,1.0,1.915,1.215,1,0.0,23,2,8.0,8.0,896.0,896.0,0.0
27,1,1.0,1.0,1.944,0.906,1,1.0,24,2,9.0,10.0,653.0,6216.0,2.0
27,2,2.0,1.0,1.224,1.417,1,1.0,25,2,8.0,8.0,3412.0,3412.0,0.0
27,1,1.0,1.0,1.48,1.453,1,1.0,26,2,7.0,7.0,126.0,126.0,1.0
27,1,1.0,4.0,1.636,1.788,1,1.0,27,2,7.0,6.0,613.0,408.0,1.0
27,2,2.0,1.0,1.485,1.992,1,1.0,28,2,8.0,8.0,134.0,134.0,0.0
27,1,1.0,1.0,1.02,1.756,1,1.0,29,2,8.0,6.0,1026.0,345.0,2.0
27,2,2.0,1.0,1.681,1.911,1,1.0,30,2,8.0,8.0,175.0,175.0,0.0
27,2,2.0,1.0,1.364,2.152,1,1.0,31,2,8.0,8.0,857.0,857.0,0.0
27,1,NAN,2.0,NAN,2.425,1,NAN,32,2,8.0,8.0,248.0,100.0,2.0
28,1,1.0,4.0,0.876,1.959,1,1.0,18,2,7.0,7.0,126.0,126.0,1.0
28,2,2.0,1.0,0.755,2.257,1,1.0,19,2,8.0,8.0,134.0,134.0,0.0
28,1,1.0,1.0,0.521,1.476,1,1.0,20,2,8.0,7.0,1124.0,100.0,2.0
28,2,2.0,2.0,0.785,2.306,1,1.0,21,2,8.0,8.0,104.0,104.0,0.0
28,1,1.0,1.0,0.644,1.948,1,1.0,22,2,9.0,9.0,707.0,889.0,1.0
28,2,1.0,1.0,0.56,1.427,1,0.0,23,2,8.0,8.0,3412.0,3412.0,0.0
28,2,2.0,1.0,0.675,1.339,1,1.0,24,2,8.0,8.0,594.0,594.0,0.0
28,1,1.0,1.0,0.915,1.141,1,1.0,25,2,9.0,10.0,653.0,6216.0,2.0
28,1,1.0,4.0,0.756,1.707,1,1.0,26,2,7.0,6.0,613.0,408.0,1.0
28,2,1.0,3.0,1.189,3.356,1,0.0,27,2,8.0,8.0,857.0,857.0,0.0
28,2,1.0,1.0,0.963,2.032,1,0.0,28,2,8.0,8.0,175.0,175.0,0.0
28,1,1.0,4.0,1.238,0.598,1,1.0,29,2,8.0,8.0,248.0,100.0,2.0
28,2,2.0,3.0,0.555,2.705,1,1.0,30,2,8.0,8.0,896.0,896.0,0.0
28,1,1.0,1.0,0.567,2.349,1,1.0,31,2,8.0,6.0,1026.0,345.0,2.0
28,2,2.0,2.0,0.68,2.043,1,1.0,32,2,8.0,8.0,455.0,455.0,0.0
29,2,1.0,2.0,1.831,0.457,1,0.0,18,2,8.0,8.0,896.0,896.0,0.0
29,1,1.0,2.0,1.178,1.125,1,1.0,19,2,8.0,7.0,1124.0,100.0,2.0
29,2,1.0,2.0,1.905,1.103,1,0.0,20,2,8.0,8.0,134.0,134.0,0.0
29,1,2.0,4.0,1.326,0.768,1,0.0,21,2,7.0,6.0,613.0,408.0,1.0
29,1,1.0,1.0,1.907,1.405,1,1.0,22,2,9.0,9.0,707.0,889.0,1.0
29,2,2.0,1.0,1.612,0.617,1,1.0,23,2,8.0,8.0,3412.0,3412.0,0.0
29,2,2.0,2.0,1.52,0.853,1,1.0,24,2,8.0,8.0,857.0,857.0,0.0
29,1,1.0,4.0,1.972,3.061,1,1.0,25,2,8.0,6.0,1026.0,345.0,2.0
29,2,1.0,2.0,1.567,0.978,1,0.0,26,2,8.0,8.0,104.0,104.0,0.0
29,1,2.0,2.0,1.525,0.842,1,0.0,27,2,8.0,8.0,248.0,100.0,2.0
29,2,2.0,2.0,1.212,1.02,1,1.0,28,2,8.0,8.0,175.0,175.0,0.0
29,2,2.0,4.0,1.407,1.007,1,1.0,29,2,8.0,8.0,455.0,455.0,0.0
29,2,2.0,1.0,1.065,3.559,1,1.0,30,2,8.0,8.0,594.0,594.0,0.0
29,1,1.0,4.0,1.831,0.84,1,1.0,31,2,7.0,7.0,126.0,126.0,1.0
29,1,1.0,1.0,1.919,1.032,1,1.0,32,2,9.0,10.0,653.0,6216.0,2.0
30,1,2.0,1.0,2.12,0.965,1,0.0,18,2,8.0,8.0,248.0,100.0,2.0
30,2,2.0,4.0,0.582,0.588,1,1.0,19,2,8.0,8.0,104.0,104.0,0.0
30,1,1.0,4.0,0.932,0.77,1,1.0,20,2,7.0,6.0,613.0,408.0,1.0
30,2,1.0,1.0,1.219,0.865,1,0.0,21,2,8.0,8.0,594.0,594.0,0.0
30,1,1.0,1.0,0.715,0.751,1,1.0,22,2,8.0,7.0,1124.0,100.0,2.0
30,2,2.0,1.0,1.336,0.965,1,1.0,23,2,8.0,8.0,455.0,455.0,0.0
30,2,1.0,2.0,1.728,2.28,1,0.0,24,2,8.0,8.0,857.0,857.0,0.0
30,1,1.0,3.0,0.63,2.679,1,1.0,25,2,7.0,7.0,126.0,126.0,1.0
30,2,2.0,1.0,1.134,1.059,1,1.0,26,2,8.0,8.0,896.0,896.0,0.0
30,1,1.0,1.0,1.288,0.554,1,1.0,27,2,8.0,6.0,1026.0,345.0,2.0
30,2,2.0,2.0,1.483,1.655,1,1.0,28,2,8.0,8.0,175.0,175.0,0.0
30,2,1.0,1.0,1.681,1.006,1,0.0,29,2,8.0,8.0,3412.0,3412.0,0.0
30,2,2.0,3.0,0.584,0.807,1,1.0,30,2,8.0,8.0,134.0,134.0,0.0
30,1,1.0,1.0,1.536,1.768,1,1.0,31,2,9.0,10.0,653.0,6216.0,2.0
30,1,2.0,1.0,1.175,0.908,1,0.0,32,2,9.0,9.0,707.0,889.0,1.0
31,2,2.0,1.0,0.633,1.203,1,1.0,18,2,8.0,8.0,455.0,455.0,0.0
31,1,2.0,3.0,1.407,0.975,1,0.0,19,2,7.0,6.0,613.0,408.0,1.0
31,1,2.0,2.0,2.223,1.499,1,0.0,20,2,9.0,9.0,707.0,889.0,1.0
31,2,2.0,3.0,1.293,2.559,1,1.0,21,2,8.0,8.0,896.0,896.0,0.0
31,2,2.0,1.0,1.214,1.024,1,1.0,22,2,8.0,8.0,104.0,104.0,0.0
31,1,1.0,4.0,1.03,2.281,1,1.0,23,2,7.0,7.0,126.0,126.0,1.0
31,1,1.0,2.0,0.752,0.873,1,1.0,24,2,8.0,6.0,1026.0,345.0,2.0
31,2,2.0,3.0,1.57,1.901,1,1.0,25,2,8.0,8.0,3412.0,3412.0,0.0
31,1,1.0,2.0,0.794,1.726,1,1.0,26,2,8.0,8.0,248.0,100.0,2.0
31,1,1.0,3.0,1.183,1.832,1,1.0,27,2,8.0,7.0,1124.0,100.0,2.0
31,2,2.0,2.0,0.86,1.899,1,1.0,28,2,8.0,8.0,134.0,134.0,0.0
31,1,2.0,3.0,2.597,1.039,1,0.0,29,2,9.0,10.0,653.0,6216.0,2.0
31,2,2.0,2.0,1.722,2.666,1,1.0,30,2,8.0,8.0,175.0,175.0,0.0
31,2,2.0,3.0,2.027,1.096,1,1.0,31,2,8.0,8.0,594.0,594.0,0.0
31,2,2.0,2.0,1.949,2.294,1,1.0,32,2,8.0,8.0,857.0,857.0,0.0
32,2,2.0,1.0,1.108,0.853,1,1.0,18,2,8.0,8.0,175.0,175.0,0.0
32,2,2.0,4.0,0.635,1.039,1,1.0,19,2,8.0,8.0,594.0,594.0,0.0
32,2,2.0,1.0,0.824,1.231,1,1.0,20,2,8.0,8.0,455.0,455.0,0.0
32,1,2.0,1.0,1.358,0.817,1,0.0,21,2,9.0,9.0,707.0,889.0,1.0
32,1,1.0,4.0,1.081,0.699,1,1.0,22,2,7.0,7.0,126.0,126.0,1.0
32,1,1.0,1.0,2.267,1.164,1,1.0,23,2,8.0,7.0,1124.0,100.0,2.0
32,1,2.0,2.0,1.159,1.166,1,0.0,24,2,9.0,10.0,653.0,6216.0,2.0
32,1,2.0,2.0,2.421,0.961,1,0.0,25,2,8.0,8.0,248.0,100.0,2.0
32,1,1.0,2.0,1.396,0.814,1,1.0,26,2,8.0,6.0,1026.0,345.0,2.0
32,2,2.0,2.0,1.703,0.788,1,1.0,27,2,8.0,8.0,857.0,857.0,0.0
32,2,2.0,3.0,1.517,1.683,1,1.0,28,2,8.0,8.0,134.0,134.0,0.0
32,2,2.0,4.0,0.529,0.967,1,1.0,29,2,8.0,8.0,104.0,104.0,0.0
32,1,1.0,4.0,0.901,0.844,1,1.0,30,2,7.0,6.0,613.0,408.0,1.0
32,2,2.0,2.0,1.156,1.246,1,1.0,31,2,8.0,8.0,896.0,896.0,0.0
32,2,2.0,2.0,2.895,2.026,1,1.0,32,2,8.0,8.0,3412.0,3412.0,0.0
33,1,NAN,1.0,NAN,3.297,2,NAN,18,2,9.0,9.0,2212.0,100.0,2.0
33,2,2.0,4.0,0.201,1.183,2,1.0,19,2,7.0,7.0,248.0,248.0,0.0
33,1,1.0,4.0,0.588,0.995,2,1.0,20,2,8.0,6.0,175.0,160.0,2.0
33,2,1.0,3.0,0.955,2.244,2,0.0,21,2,8.0,8.0,1026.0,1026.0,0.0
33,1,1.0,3.0,0.885,2.352,2,1.0,22,2,8.0,7.0,976.0,283.0,2.0
33,2,2.0,2.0,0.832,2.269,2,1.0,23,2,8.0,8.0,328.0,328.0,0.0
33,2,2.0,4.0,0.242,1.223,2,1.0,24,2,8.0,8.0,2183.0,2183.0,0.0
33,2,2.0,3.0,0.881,1.468,2,1.0,25,2,9.0,9.0,653.0,653.0,0.0
33,2,2.0,2.0,1.422,1.3,2,1.0,26,2,7.0,7.0,920.0,920.0,0.0
33,2,2.0,3.0,0.51,2.024,2,1.0,27,2,6.0,6.0,422.0,422.0,0.0
33,2,1.0,3.0,0.695,2.058,2,0.0,28,2,7.0,7.0,212.0,212.0,0.0
33,1,1.0,4.0,0.504,2.291,2,1.0,29,2,8.0,6.0,896.0,100.0,2.0
33,1,1.0,4.0,0.361,1.226,2,1.0,30,2,8.0,7.0,962.0,408.0,2.0
33,1,1.0,4.0,0.523,0.853,2,1.0,31,2,9.0,9.0,120.0,1042.0,1.0
33,1,1.0,4.0,0.549,1.423,2,1.0,32,2,8.0,6.0,455.0,457.0,2.0
34,2,2.0,3.0,0.975,1.128,2,1.0,18,2,7.0,7.0,248.0,248.0,0.0
34,2,2.0,2.0,1.005,2.021,2,1.0,19,2,6.0,6.0,422.0,422.0,0.0
34,2,2.0,2.0,1.797,1.469,2,1.0,20,2,8.0,8.0,328.0,328.0,0.0
34,2,1.0,2.0,1.732,1.95,2,0.0,21,2,8.0,8.0,2183.0,2183.0,0.0
34,2,1.0,2.0,1.891,1.959,2,0.0,22,2,9.0,9.0,653.0,653.0,0.0
34,1,1.0,3.0,0.938,2.9,2,1.0,23,2,8.0,6.0,175.0,160.0,2.0
34,1,1.0,4.0,2.29,2.933,2,1.0,24,2,9.0,9.0,2212.0,100.0,2.0
34,2,2.0,3.0,0.755,1.108,2,1.0,25,2,7.0,7.0,920.0,920.0,0.0
34,2,2.0,3.0,1.066,2.223,2,1.0,26,2,7.0,7.0,212.0,212.0,0.0
34,1,1.0,4.0,1.174,2.246,2,1.0,27,2,8.0,7.0,962.0,408.0,2.0
34,1,1.0,4.0,0.956,1.349,2,1.0,28,2,8.0,6.0,896.0,100.0,2.0
34,2,2.0,3.0,1.217,1.759,2,1.0,29,2,8.0,8.0,1026.0,1026.0,0.0
34,1,1.0,4.0,0.651,2.704,2,1.0,30,2,8.0,6.0,455.0,457.0,2.0
34,1,1.0,2.0,1.463,1.5,2,1.0,31,2,9.0,9.0,120.0,1042.0,1.0
34,1,1.0,3.0,1.058,0.712,2,1.0,32,2,8.0,7.0,976.0,283.0,2.0
35,2,2.0,4.0,0.848,0.813,2,1.0,18,2,7.0,7.0,248.0,248.0,0.0
35,1,1.0,4.0,0.718,1.281,2,1.0,19,2,8.0,6.0,175.0,160.0,2.0
35,1,1.0,4.0,0.688,0.676,2,1.0,20,2,8.0,6.0,896.0,100.0,2.0
35,2,2.0,2.0,1.051,1.84,2,1.0,21,2,8.0,8.0,2183.0,2183.0,0.0
35,1,1.0,3.0,1.847,1.725,2,1.0,22,2,9.0,9.0,120.0,1042.0,1.0
35,1,1.0,4.0,1.081,1.117,2,1.0,23,2,8.0,6.0,455.0,457.0,2.0
35,2,NAN,2.0,NAN,0.01,2,NAN,24,2,8.0,8.0,1026.0,1026.0,0.0
35,1,2.0,1.0,1.195,1.979,2,0.0,25,2,9.0,9.0,2212.0,100.0,2.0
35,2,2.0,4.0,1.15,1.103,2,1.0,26,2,7.0,7.0,212.0,212.0,0.0
35,2,2.0,1.0,1.7,1.231,2,1.0,27,2,9.0,9.0,653.0,653.0,0.0
35,1,1.0,4.0,1.232,1.102,2,1.0,28,2,8.0,7.0,976.0,283.0,2.0
35,2,2.0,2.0,1.188,1.38,2,1.0,29,2,8.0,8.0,328.0,328.0,0.0
35,2,2.0,3.0,1.214,0.669,2,1.0,30,2,7.0,7.0,920.0,920.0,0.0
35,2,2.0,3.0,1.604,1.523,2,1.0,31,2,6.0,6.0,422.0,422.0,0.0
35,1,1.0,4.0,1.384,1.921,2,1.0,32,2,8.0,7.0,962.0,408.0,2.0
36,1,1.0,3.0,1.121,2.548,2,1.0,18,2,8.0,6.0,896.0,100.0,2.0
36,1,2.0,3.0,2.0,1.344,2,0.0,19,2,9.0,9.0,2212.0,100.0,2.0
36,2,2.0,3.0,1.804,2.244,2,1.0,20,2,6.0,6.0,422.0,422.0,0.0
36,2,NAN,2.0,NAN,1.972,2,NAN,21,2,7.0,7.0,212.0,212.0,0.0
36,1,1.0,3.0,2.166,1.407,2,1.0,22,2,8.0,6.0,175.0,160.0,2.0
36,2,2.0,3.0,1.193,1.56,2,1.0,23,2,8.0,8.0,1026.0,1026.0,0.0
36,2,1.0,2.0,1.26,1.689,2,0.0,24,2,7.0,7.0,920.0,920.0,0.0
36,1,1.0,3.0,1.703,3.379,2,1.0,25,2,8.0,7.0,962.0,408.0,2.0
36,2,2.0,3.0,2.142,1.623,2,1.0,26,2,7.0,7.0,248.0,248.0,0.0
36,1,1.0,3.0,1.672,2.212,2,1.0,27,2,8.0,7.0,976.0,283.0,2.0
36,1,2.0,3.0,1.309,1.239,2,0.0,28,2,9.0,9.0,120.0,1042.0,1.0
36,2,2.0,3.0,1.464,1.869,2,1.0,29,2,8.0,8.0,2183.0,2183.0,0.0
36,2,2.0,3.0,2.405,1.124,2,1.0,30,2,9.0,9.0,653.0,653.0,0.0
36,2,1.0,2.0,2.378,2.074,2,0.0,31,2,8.0,8.0,328.0,328.0,0.0
36,1,1.0,4.0,1.128,1.738,2,1.0,32,2,8.0,6.0,455.0,457.0,2.0
37,2,2.0,3.0,1.398,1.085,2,1.0,18,2,7.0,7.0,248.0,248.0,0.0
37,2,2.0,1.0,0.98,1.948,2,1.0,19,2,7.0,7.0,212.0,212.0,0.0
37,1,1.0,4.0,0.847,0.989,2,1.0,20,2,8.0,7.0,962.0,408.0,2.0
37,1,1.0,3.0,1.031,1.821,2,1.0,21,2,8.0,6.0,455.0,457.0,2.0
37,2,2.0,1.0,1.798,1.277,2,1.0,22,2,9.0,9.0,653.0,653.0,0.0
37,1,1.0,4.0,0.748,0.798,2,1.0,23,2,9.0,9.0,120.0,1042.0,1.0
37,2,1.0,2.0,1.439,1.301,2,0.0,24,2,8.0,8.0,2183.0,2183.0,0.0
37,1,1.0,3.0,0.387,2.291,2,1.0,25,2,8.0,6.0,896.0,100.0,2.0
37,2,2.0,2.0,1.001,1.744,2,1.0,26,2,6.0,6.0,422.0,422.0,0.0
37,2,2.0,2.0,0.876,1.192,2,1.0,27,2,7.0,7.0,920.0,920.0,0.0
37,2,1.0,3.0,0.955,3.316,2,0.0,28,2,8.0,8.0,1026.0,1026.0,0.0
37,1,1.0,3.0,0.418,1.712,2,1.0,29,2,9.0,9.0,2212.0,100.0,2.0
37,1,1.0,4.0,0.686,1.522,2,1.0,30,2,8.0,7.0,976.0,283.0,2.0
37,1,1.0,4.0,0.646,1.435,2,1.0,31,2,8.0,6.0,175.0,160.0,2.0
37,2,1.0,1.0,0.948,3.293,2,0.0,32,2,8.0,8.0,328.0,328.0,0.0
38,1,1.0,3.0,0.833,0.879,2,1.0,18,2,8.0,6.0,175.0,160.0,2.0
38,1,1.0,3.0,0.942,1.334,2,1.0,19,2,8.0,6.0,455.0,457.0,2.0
38,2,2.0,2.0,0.739,0.82,2,1.0,20,2,7.0,7.0,920.0,920.0,0.0
38,2,1.0,1.0,0.853,2.658,2,0.0,21,2,9.0,9.0,653.0,653.0,0.0
38,2,2.0,3.0,1.24,1.061,2,1.0,22,2,6.0,6.0,422.0,422.0,0.0
38,1,1.0,4.0,1.371,1.299,2,1.0,23,2,8.0,7.0,962.0,408.0,2.0
38,1,1.0,4.0,1.106,0.564,2,1.0,24,2,8.0,6.0,896.0,100.0,2.0
38,2,1.0,1.0,1.776,1.224,2,0.0,25,2,7.0,7.0,212.0,212.0,0.0
38,1,2.0,2.0,1.559,1.4,2,0.0,26,2,9.0,9.0,120.0,1042.0,1.0
38,2,1.0,1.0,2.162,1.274,2,0.0,27,2,8.0,8.0,2183.0,2183.0,0.0
38,2,1.0,3.0,1.401,0.816,2,0.0,28,2,8.0,8.0,328.0,328.0,0.0
38,2,1.0,1.0,1.506,0.996,2,0.0,29,2,8.0,8.0,1026.0,1026.0,0.0
38,2,2.0,3.0,1.662,1.354,2,1.0,30,2,7.0,7.0,248.0,248.0,0.0
38,1,1.0,3.0,0.917,1.248,2,1.0,31,2,8.0,7.0,976.0,283.0,2.0
38,1,2.0,1.0,1.312,1.45,2,0.0,32,2,9.0,9.0,2212.0,100.0,2.0
39,2,2.0,3.0,0.63,1.276,2,1.0,18,2,7.0,7.0,248.0,248.0,0.0
39,1,1.0,4.0,0.98,2.028,2,1.0,19,2,8.0,6.0,455.0,457.0,2.0
39,1,1.0,4.0,1.22,1.058,2,1.0,20,2,9.0,9.0,120.0,1042.0,1.0
39,2,2.0,2.0,1.283,2.175,2,1.0,21,2,6.0,6.0,422.0,422.0,0.0
39,2,2.0,3.0,0.998,1.965,2,1.0,22,2,9.0,9.0,653.0,653.0,0.0
39,2,2.0,3.0,1.113,2.044,2,1.0,23,2,8.0,8.0,2183.0,2183.0,0.0
39,2,2.0,2.0,1.288,0.772,2,1.0,24,2,8.0,8.0,1026.0,1026.0,0.0
39,2,2.0,3.0,1.442,1.416,2,1.0,25,2,7.0,7.0,212.0,212.0,0.0
39,2,2.0,3.0,1.451,1.567,2,1.0,26,2,7.0,7.0,920.0,920.0,0.0
39,1,1.0,4.0,1.292,1.591,2,1.0,27,2,9.0,9.0,2212.0,100.0,2.0
39,1,1.0,4.0,1.254,1.411,2,1.0,28,2,8.0,6.0,896.0,100.0,2.0
39,2,2.0,2.0,1.593,1.465,2,1.0,29,2,8.0,8.0,328.0,328.0,0.0
39,1,1.0,4.0,1.215,0.846,2,1.0,30,2,8.0,7.0,962.0,408.0,2.0
39,1,1.0,4.0,0.782,2.254,2,1.0,31,2,8.0,6.0,175.0,160.0,2.0
39,1,1.0,3.0,1.509,1.592,2,1.0,32,2,8.0,7.0,976.0,283.0,2.0
40,1,1.0,3.0,1.624,2.342,2,1.0,18,2,9.0,9.0,2212.0,100.0,2.0
40,1,NAN,2.0,NAN,0.169,2,NAN,19,2,8.0,7.0,976.0,283.0,2.0
40,1,2.0,2.0,1.612,1.466,2,0.0,20,2,8.0,6.0,455.0,457.0,2.0
40,1,1.0,4.0,2.312,1.561,2,1.0,21,2,8.0,6.0,896.0,100.0,2.0
40,1,1.0,4.0,1.142,1.19,2,1.0,22,2,8.0,7.0,962.0,408.0,2.0
40,2,2.0,3.0,0.912,1.723,2,1.0,23,2,9.0,9.0,653.0,653.0,0.0
40,1,1.0,2.0,0.739,1.412,2,1.0,24,2,8.0,6.0,175.0,160.0,2.0
40,2,1.0,2.0,1.082,2.268,2,0.0,25,2,8.0,8.0,2183.0,2183.0,0.0
40,2,2.0,3.0,1.003,1.346,2,1.0,26,2,8.0,8.0,328.0,328.0,0.0
40,2,2.0,4.0,1.19,1.237,2,1.0,27,2,6.0,6.0,422.0,422.0,0.0
40,1,1.0,4.0,2.031,1.293,2,1.0,28,2,9.0,9.0,120.0,1042.0,1.0
40,2,2.0,3.0,0.87,0.979,2,1.0,29,2,7.0,7.0,248.0,248.0,0.0
40,2,1.0,3.0,1.102,1.522,2,0.0,30,2,8.0,8.0,1026.0,1026.0,0.0
40,2,2.0,4.0,1.591,1.35,2,1.0,31,2,7.0,7.0,920.0,920.0,0.0
40,2,2.0,2.0,0.979,2.123,2,1.0,32,2,7.0,7.0,212.0,212.0,0.0
41,2,2.0,2.0,0.634,1.472,2,1.0,18,2,7.0,7.0,212.0,212.0,0.0
41,1,1.0,2.0,0.494,1.641,2,1.0,19,2,8.0,7.0,976.0,283.0,2.0
41,2,2.0,2.0,0.767,1.679,2,1.0,20,2,9.0,9.0,653.0,653.0,0.0
41,1,1.0,3.0,0.517,1.679,2,1.0,21,2,8.0,6.0,175.0,160.0,2.0
41,2,2.0,2.0,0.628,1.227,2,1.0,22,2,8.0,8.0,328.0,328.0,0.0
41,2,2.0,2.0,1.235,1.92,2,1.0,23,2,6.0,6.0,422.0,422.0,0.0
41,1,1.0,3.0,0.799,3.934,2,1.0,24,2,9.0,9.0,120.0,1042.0,1.0
41,1,1.0,3.0,0.446,2.332,2,1.0,25,2,8.0,6.0,896.0,100.0,2.0
41,2,2.0,2.0,1.16,1.401,2,1.0,26,2,8.0,8.0,2183.0,2183.0,0.0
41,1,2.0,2.0,0.779,1.611,2,0.0,27,2,9.0,9.0,2212.0,100.0,2.0
41,2,2.0,4.0,0.518,1.28,2,1.0,28,2,7.0,7.0,920.0,920.0,0.0
41,1,1.0,3.0,0.699,1.614,2,1.0,29,2,8.0,6.0,455.0,457.0,2.0
41,2,2.0,4.0,0.383,1.167,2,1.0,30,2,7.0,7.0,248.0,248.0,0.0
41,2,2.0,2.0,0.546,1.403,2,1.0,31,2,8.0,8.0,1026.0,1026.0,0.0
41,1,1.0,3.0,1.637,1.458,2,1.0,32,2,8.0,7.0,962.0,408.0,2.0
42,2,1.0,3.0,1.979,1.851,2,0.0,18,2,8.0,8.0,1026.0,1026.0,0.0
42,2,2.0,4.0,1.107,0.678,2,1.0,19,2,7.0,7.0,248.0,248.0,0.0
42,1,1.0,4.0,2.909,1.448,2,1.0,20,2,8.0,6.0,896.0,100.0,2.0
42,1,1.0,4.0,1.391,1.126,2,1.0,21,2,8.0,6.0,455.0,457.0,2.0
42,2,2.0,2.0,2.075,1.607,2,1.0,22,2,8.0,8.0,2183.0,2183.0,0.0
42,1,1.0,4.0,1.416,1.055,2,1.0,23,2,9.0,9.0,120.0,1042.0,1.0
42,1,1.0,4.0,1.029,0.699,2,1.0,24,2,8.0,7.0,976.0,283.0,2.0
42,2,1.0,2.0,2.226,2.024,2,0.0,25,2,7.0,7.0,920.0,920.0,0.0
42,2,2.0,3.0,1.912,4.907,2,1.0,26,2,6.0,6.0,422.0,422.0,0.0
42,1,1.0,4.0,1.592,0.807,2,1.0,27,2,8.0,7.0,962.0,408.0,2.0
42,2,1.0,3.0,1.641,1.574,2,0.0,28,2,7.0,7.0,212.0,212.0,0.0
42,1,1.0,4.0,1.496,0.699,2,1.0,29,2,9.0,9.0,2212.0,100.0,2.0
42,2,2.0,1.0,2.13,1.548,2,1.0,30,2,9.0,9.0,653.0,653.0,0.0
42,1,1.0,4.0,1.185,0.673,2,1.0,31,2,8.0,6.0,175.0,160.0,2.0
42,2,2.0,3.0,1.751,7.088,2,1.0,32,2,8.0,8.0,328.0,328.0,0.0
43,2,NAN,1.0,NAN,0.071,2,NAN,18,2,9.0,9.0,653.0,653.0,0.0
43,2,2.0,3.0,1.538,1.347,2,1.0,19,2,7.0,7.0,212.0,212.0,0.0
43,1,1.0,3.0,2.038,2.643,2,1.0,20,2,8.0,6.0,896.0,100.0,2.0
43,1,1.0,4.0,1.491,0.407,2,1.0,21,2,8.0,6.0,175.0,160.0,2.0
43,2,2.0,2.0,2.687,1.187,2,1.0,22,2,8.0,8.0,2183.0,2183.0,0.0
43,2,NAN,2.0,NAN,0.629,2,NAN,23,2,6.0,6.0,422.0,422.0,0.0
43,1,NAN,2.0,NAN,0.604,2,NAN,24,2,9.0,9.0,2212.0,100.0,2.0
43,2,1.0,2.0,2.08,0.988,2,0.0,25,2,7.0,7.0,920.0,920.0,0.0
43,2,NAN,2.0,NAN,0.23,2,NAN,26,2,8.0,8.0,1026.0,1026.0,0.0
43,1,1.0,4.0,2.071,1.683,2,1.0,27,2,9.0,9.0,120.0,1042.0,1.0
43,1,NAN,1.0,NAN,0.592,2,NAN,28,2,8.0,7.0,976.0,283.0,2.0
43,2,2.0,3.0,2.599,1.758,2,1.0,29,2,8.0,8.0,328.0,328.0,0.0
43,1,1.0,4.0,1.367,0.864,2,1.0,30,2,8.0,7.0,962.0,408.0,2.0
43,2,2.0,4.0,1.726,0.808,2,1.0,31,2,7.0,7.0,248.0,248.0,0.0
43,1,1.0,4.0,1.258,0.759,2,1.0,32,2,8.0,6.0,455.0,457.0,2.0
44,2,1.0,2.0,1.522,1.028,2,0.0,18,2,8.0,8.0,1026.0,1026.0,0.0
44,1,1.0,4.0,0.518,1.248,2,1.0,19,2,8.0,7.0,962.0,408.0,2.0
44,2,1.0,3.0,1.705,2.164,2,0.0,20,2,7.0,7.0,212.0,212.0,0.0
44,2,2.0,4.0,0.921,0.611,2,1.0,21,2,7.0,7.0,248.0,248.0,0.0
44,1,1.0,4.0,1.176,0.472,2,1.0,22,2,8.0,6.0,896.0,100.0,2.0
44,2,2.0,3.0,1.444,0.537,2,1.0,23,2,7.0,7.0,920.0,920.0,0.0
44,2,1.0,3.0,1.682,0.59,2,0.0,24,2,8.0,8.0,328.0,328.0,0.0
44,2,2.0,4.0,0.242,0.326,2,1.0,25,2,6.0,6.0,422.0,422.0,0.0
44,1,1.0,2.0,2.599,2.285,2,1.0,26,2,9.0,9.0,2212.0,100.0,2.0
44,1,1.0,4.0,1.021,0.371,2,1.0,27,2,8.0,6.0,455.0,457.0,2.0
44,2,1.0,2.0,1.797,1.516,2,0.0,28,2,8.0,8.0,2183.0,2183.0,0.0
44,1,1.0,4.0,1.183,0.591,2,1.0,29,2,8.0,6.0,175.0,160.0,2.0
44,1,1.0,4.0,1.848,0.461,2,1.0,30,2,9.0,9.0,120.0,1042.0,1.0
44,1,1.0,4.0,1.021,0.388,2,1.0,31,2,8.0,7.0,976.0,283.0,2.0
44,2,1.0,3.0,1.99,0.741,2,0.0,32,2,9.0,9.0,653.0,653.0,0.0
45,1,1.0,4.0,1.406,1.62,2,1.0,18,2,8.0,6.0,175.0,160.0,2.0
45,2,2.0,2.0,2.315,2.493,2,1.0,19,2,7.0,7.0,212.0,212.0,0.0
45,2,NAN,1.0,NAN,2.042,2,NAN,20,2,8.0,8.0,328.0,328.0,0.0
45,2,2.0,4.0,1.488,1.284,2,1.0,21,2,6.0,6.0,422.0,422.0,0.0
45,2,NAN,2.0,NAN,2.884,2,NAN,22,2,9.0,9.0,653.0,653.0,0.0
45,2,2.0,3.0,1.433,1.934,2,1.0,23,2,8.0,8.0,1026.0,1026.0,0.0
45,1,2.0,3.0,1.737,3.106,2,0.0,24,2,9.0,9.0,120.0,1042.0,1.0
45,2,2.0,3.0,0.945,1.178,2,1.0,25,2,7.0,7.0,248.0,248.0,0.0
45,1,NAN,2.0,NAN,2.38,2,NAN,26,2,8.0,6.0,896.0,100.0,2.0
45,1,2.0,4.0,0.938,1.619,2,0.0,27,2,8.0,6.0,455.0,457.0,2.0
45,1,2.0,3.0,1.841,2.199,2,0.0,28,2,9.0,9.0,2212.0,100.0,2.0
45,1,NAN,1.0,NAN,0.024,2,NAN,29,2,8.0,7.0,962.0,408.0,2.0
45,2,2.0,3.0,2.073,3.349,2,1.0,30,2,8.0,8.0,2183.0,2183.0,0.0
45,2,2.0,4.0,1.826,8.088,2,1.0,31,2,7.0,7.0,920.0,920.0,0.0
45,1,1.0,4.0,1.381,2.509,2,1.0,32,2,8.0,7.0,976.0,283.0,2.0
46,1,1.0,4.0,1.415,2.574,2,1.0,18,2,8.0,7.0,962.0,408.0,2.0
46,1,1.0,4.0,1.096,1.18,2,1.0,19,2,8.0,6.0,896.0,100.0,2.0
46,2,2.0,3.0,1.15,1.647,2,1.0,20,2,6.0,6.0,422.0,422.0,0.0
46,1,1.0,4.0,0.976,1.32,2,1.0,21,2,8.0,7.0,976.0,283.0,2.0
46,2,2.0,4.0,0.917,1.12,2,1.0,22,2,7.0,7.0,920.0,920.0,0.0
46,1,1.0,1.0,1.188,2.068,2,1.0,23,2,8.0,6.0,455.0,457.0,2.0
46,2,2.0,3.0,1.348,1.741,2,1.0,24,2,7.0,7.0,248.0,248.0,0.0
46,2,1.0,2.0,1.818,2.209,2,0.0,25,2,9.0,9.0,653.0,653.0,0.0
46,1,NAN,1.0,NAN,1.793,2,NAN,26,2,9.0,9.0,2212.0,100.0,2.0
46,1,1.0,2.0,1.466,2.222,2,1.0,27,2,9.0,9.0,120.0,1042.0,1.0
46,2,2.0,3.0,1.703,2.114,2,1.0,28,2,8.0,8.0,1026.0,1026.0,0.0
46,1,1.0,2.0,1.664,2.141,2,1.0,29,2,8.0,6.0,175.0,160.0,2.0
46,2,1.0,4.0,1.769,2.162,2,0.0,30,2,8.0,8.0,328.0,328.0,0.0
46,2,1.0,3.0,2.669,1.762,2,0.0,31,2,7.0,7.0,212.0,212.0,0.0
46,2,NAN,1.0,NAN,0.004,2,NAN,32,2,8.0,8.0,2183.0,2183.0,0.0
47,2,2.0,2.0,2.113,0.827,2,1.0,18,2,9.0,9.0,653.0,653.0,0.0
47,2,1.0,1.0,0.748,0.589,2,0.0,19,2,8.0,8.0,1026.0,1026.0,0.0
47,2,1.0,3.0,1.112,0.842,2,0.0,20,2,7.0,7.0,920.0,920.0,0.0
47,2,2.0,4.0,0.203,0.642,2,1.0,21,2,7.0,7.0,248.0,248.0,0.0
47,2,2.0,2.0,0.602,0.545,2,1.0,22,2,6.0,6.0,422.0,422.0,0.0
47,1,1.0,4.0,0.669,0.738,2,1.0,23,2,8.0,7.0,962.0,408.0,2.0
47,2,2.0,4.0,0.79,0.741,2,1.0,24,2,7.0,7.0,212.0,212.0,0.0
47,1,1.0,2.0,0.776,0.984,2,1.0,25,2,8.0,6.0,455.0,457.0,2.0
47,1,1.0,1.0,0.626,0.648,2,1.0,26,2,9.0,9.0,120.0,1042.0,1.0
47,1,1.0,3.0,1.073,0.725,2,1.0,27,2,8.0,7.0,976.0,283.0,2.0
47,1,1.0,4.0,1.001,0.448,2,1.0,28,2,8.0,6.0,896.0,100.0,2.0
47,2,1.0,2.0,0.592,1.192,2,0.0,29,2,8.0,8.0,328.0,328.0,0.0
47,1,1.0,3.0,0.57,0.483,2,1.0,30,2,8.0,6.0,175.0,160.0,2.0
47,1,2.0,2.0,1.2,0.528,2,0.0,31,2,9.0,9.0,2212.0,100.0,2.0
47,2,1.0,2.0,1.165,0.829,2,0.0,32,2,8.0,8.0,2183.0,2183.0,0.0
48,1,1.0,3.0,2.329,1.419,2,1.0,18,2,8.0,6.0,896.0,100.0,2.0
48,2,NAN,1.0,NAN,0.218,2,NAN,19,2,9.0,9.0,653.0,653.0,0.0
48,2,2.0,4.0,0.339,1.317,2,1.0,20,2,7.0,7.0,248.0,248.0,0.0
48,1,1.0,3.0,0.979,1.163,2,1.0,21,2,8.0,7.0,962.0,408.0,2.0
48,1,1.0,2.0,2.815,1.245,2,1.0,22,2,8.0,6.0,175.0,160.0,2.0
48,1,1.0,4.0,0.301,2.369,2,1.0,23,2,8.0,7.0,976.0,283.0,2.0
48,2,1.0,3.0,1.269,1.298,2,0.0,24,2,6.0,6.0,422.0,422.0,0.0
48,1,1.0,3.0,1.328,1.098,2,1.0,25,2,9.0,9.0,120.0,1042.0,1.0
48,2,2.0,2.0,1.632,1.534,2,1.0,26,2,8.0,8.0,1026.0,1026.0,0.0
48,1,1.0,3.0,0.883,1.295,2,1.0,27,2,8.0,6.0,455.0,457.0,2.0
48,2,1.0,3.0,1.87,1.571,2,0.0,28,2,8.0,8.0,328.0,328.0,0.0
48,2,2.0,3.0,1.301,1.696,2,1.0,29,2,8.0,8.0,2183.0,2183.0,0.0
48,2,2.0,3.0,0.927,2.121,2,1.0,30,2,7.0,7.0,920.0,920.0,0.0
48,1,2.0,1.0,1.878,1.482,2,0.0,31,2,9.0,9.0,2212.0,100.0,2.0
48,2,1.0,2.0,1.153,1.218,2,0.0,32,2,7.0,7.0,212.0,212.0,0.0
49,2,2.0,2.0,1.01,1.721,2,1.0,18,2,8.0,8.0,328.0,328.0,0.0
49,1,2.0,2.0,2.357,1.141,2,0.0,19,2,8.0,7.0,976.0,283.0,2.0
49,2,1.0,2.0,2.314,1.404,2,0.0,20,2,6.0,6.0,422.0,422.0,0.0
49,1,1.0,3.0,2.134,1.04,2,1.0,21,2,9.0,9.0,120.0,1042.0,1.0
49,2,2.0,3.0,0.999,2.67,2,1.0,22,2,7.0,7.0,920.0,920.0,0.0
49,2,1.0,1.0,0.933,1.631,2,0.0,23,2,9.0,9.0,653.0,653.0,0.0
49,1,NAN,1.0,NAN,0.231,2,NAN,24,2,8.0,6.0,175.0,160.0,2.0
49,2,2.0,2.0,1.436,1.682,2,1.0,25,2,8.0,8.0,2183.0,2183.0,0.0
49,1,1.0,2.0,1.934,1.824,2,1.0,26,2,8.0,6.0,896.0,100.0,2.0
49,2,2.0,3.0,0.84,2.004,2,1.0,27,2,7.0,7.0,212.0,212.0,0.0
49,1,1.0,4.0,0.998,1.005,2,1.0,28,2,8.0,7.0,962.0,408.0,2.0
49,2,2.0,2.0,1.351,1.776,2,1.0,29,2,8.0,8.0,1026.0,1026.0,0.0
49,1,2.0,2.0,1.898,1.693,2,0.0,30,2,9.0,9.0,2212.0,100.0,2.0
49,2,NAN,2.0,NAN,0.099,2,NAN,31,2,7.0,7.0,248.0,248.0,0.0
49,1,1.0,4.0,1.6,1.056,2,1.0,32,2,8.0,6.0,455.0,457.0,2.0
50,2,2.0,3.0,0.641,1.318,2,1.0,18,2,7.0,7.0,248.0,248.0,0.0
50,2,2.0,3.0,0.42,2.082,2,1.0,19,2,7.0,7.0,212.0,212.0,0.0
50,1,1.0,3.0,0.641,1.879,2,1.0,20,2,8.0,6.0,175.0,160.0,2.0
50,1,1.0,3.0,1.166,1.647,2,1.0,21,2,9.0,9.0,2212.0,100.0,2.0
50,2,2.0,2.0,0.431,0.957,2,1.0,22,2,8.0,8.0,1026.0,1026.0,0.0
50,2,2.0,2.0,2.537,2.003,2,1.0,23,2,9.0,9.0,653.0,653.0,0.0
50,1,NAN,2.0,NAN,3.164,2,NAN,24,2,8.0,7.0,976.0,283.0,2.0
50,2,2.0,3.0,0.336,2.131,2,1.0,25,2,8.0,8.0,2183.0,2183.0,0.0
50,2,2.0,3.0,0.256,1.252,2,1.0,26,2,8.0,8.0,328.0,328.0,0.0
50,2,2.0,3.0,0.196,1.227,2,1.0,27,2,6.0,6.0,422.0,422.0,0.0
50,2,2.0,3.0,0.237,0.867,2,1.0,28,2,7.0,7.0,920.0,920.0,0.0
50,1,1.0,3.0,0.387,2.291,2,1.0,29,2,8.0,6.0,896.0,100.0,2.0
50,1,2.0,2.0,0.537,1.283,2,0.0,30,2,8.0,7.0,962.0,408.0,2.0
50,1,2.0,3.0,0.274,0.919,2,0.0,31,2,9.0,9.0,120.0,1042.0,1.0
50,1,1.0,3.0,0.548,1.117,2,1.0,32,2,8.0,6.0,455.0,457.0,2.0
51,2,2.0,2.0,0.962,1.256,2,1.0,18,2,8.0,8.0,3412.0,3412.0,0.0
51,2,2.0,2.0,0.635,1.25,2,1.0,19,2,8.0,8.0,857.0,857.0,0.0
51,2,2.0,2.0,0.708,1.329,2,1.0,20,2,8.0,8.0,455.0,455.0,0.0
51,1,2.0,2.0,0.876,1.64,2,0.0,21,2,8.0,8.0,248.0,100.0,2.0
51,2,2.0,2.0,1.064,1.666,2,1.0,22,2,8.0,8.0,134.0,134.0,0.0
51,2,1.0,2.0,1.081,1.142,2,0.0,23,2,8.0,8.0,175.0,175.0,0.0
51,2,2.0,2.0,2.227,0.983,2,1.0,24,2,8.0,8.0,104.0,104.0,0.0
51,1,1.0,2.0,1.601,0.935,2,1.0,25,2,7.0,7.0,126.0,126.0,1.0
51,1,1.0,2.0,0.906,0.863,2,1.0,26,2,9.0,9.0,707.0,889.0,1.0
51,1,2.0,1.0,0.902,1.362,2,0.0,27,2,9.0,10.0,653.0,6216.0,2.0
51,2,1.0,2.0,2.603,1.633,2,0.0,28,2,8.0,8.0,594.0,594.0,0.0
51,2,2.0,2.0,1.294,1.064,2,1.0,29,2,8.0,8.0,896.0,896.0,0.0
51,1,1.0,3.0,0.943,3.575,2,1.0,30,2,8.0,6.0,1026.0,345.0,2.0
51,1,2.0,2.0,1.418,1.283,2,0.0,31,2,8.0,7.0,1124.0,100.0,2.0
51,1,1.0,3.0,2.416,2.907,2,1.0,32,2,7.0,6.0,613.0,408.0,1.0
52,1,1.0,4.0,1.227,0.297,2,1.0,18,2,8.0,7.0,1124.0,100.0,2.0
52,1,1.0,4.0,1.964,0.348,2,1.0,19,2,8.0,6.0,1026.0,345.0,2.0
52,2,NAN,2.0,NAN,0.133,2,NAN,20,2,8.0,8.0,455.0,455.0,0.0
52,1,1.0,2.0,1.041,1.83,2,1.0,21,2,8.0,8.0,248.0,100.0,2.0
52,2,2.0,2.0,1.599,0.926,2,1.0,22,2,8.0,8.0,134.0,134.0,0.0
52,2,1.0,3.0,1.802,0.897,2,0.0,23,2,8.0,8.0,896.0,896.0,0.0
52,1,1.0,4.0,1.071,0.756,2,1.0,24,2,9.0,10.0,653.0,6216.0,2.0
52,2,1.0,4.0,0.903,0.626,2,0.0,25,2,8.0,8.0,857.0,857.0,0.0
52,2,NAN,1.0,NAN,1.619,2,NAN,26,2,8.0,8.0,3412.0,3412.0,0.0
52,2,1.0,2.0,1.683,1.024,2,0.0,27,2,8.0,8.0,175.0,175.0,0.0
52,1,1.0,1.0,0.968,1.009,2,1.0,28,2,9.0,9.0,707.0,889.0,1.0
52,2,1.0,1.0,1.914,0.413,2,0.0,29,2,8.0,8.0,104.0,104.0,0.0
52,1,2.0,1.0,0.702,2.337,2,0.0,30,2,7.0,7.0,126.0,126.0,1.0
52,2,2.0,2.0,2.438,0.692,2,1.0,31,2,8.0,8.0,594.0,594.0,0.0
52,1,1.0,4.0,1.178,0.298,2,1.0,32,2,7.0,6.0,613.0,408.0,1.0
53,2,2.0,2.0,1.218,1.632,2,1.0,18,2,8.0,8.0,134.0,134.0,0.0
53,1,2.0,1.0,1.856,0.692,2,0.0,19,2,8.0,7.0,1124.0,100.0,2.0
53,2,2.0,2.0,1.593,0.953,2,1.0,20,2,8.0,8.0,3412.0,3412.0,0.0
53,2,2.0,2.0,2.069,1.697,2,1.0,21,2,8.0,8.0,455.0,455.0,0.0
53,2,1.0,1.0,1.454,1.428,2,0.0,22,2,8.0,8.0,104.0,104.0,0.0
53,1,1.0,1.0,2.603,1.731,2,1.0,23,2,8.0,6.0,1026.0,345.0,2.0
53,1,1.0,1.0,2.207,1.014,2,1.0,24,2,9.0,9.0,707.0,889.0,1.0
53,2,1.0,2.0,2.91,3.033,2,0.0,25,2,8.0,8.0,175.0,175.0,0.0
53,2,2.0,2.0,1.935,1.152,2,1.0,26,2,8.0,8.0,896.0,896.0,0.0
53,2,1.0,2.0,1.539,1.748,2,0.0,27,2,8.0,8.0,857.0,857.0,0.0
53,1,1.0,3.0,0.816,3.407,2,1.0,28,2,7.0,7.0,126.0,126.0,1.0
53,1,2.0,2.0,2.008,1.623,2,0.0,29,2,9.0,10.0,653.0,6216.0,2.0
53,2,2.0,2.0,2.358,2.727,2,1.0,30,2,8.0,8.0,594.0,594.0,0.0
53,1,2.0,4.0,1.148,2.349,2,0.0,31,2,7.0,6.0,613.0,408.0,1.0
53,1,1.0,2.0,1.601,3.552,2,1.0,32,2,8.0,8.0,248.0,100.0,2.0
54,2,1.0,2.0,0.748,1.198,2,0.0,18,2,8.0,8.0,594.0,594.0,0.0
54,1,1.0,4.0,0.797,1.404,2,1.0,19,2,8.0,6.0,1026.0,345.0,2.0
54,1,2.0,3.0,1.301,1.248,2,0.0,20,2,8.0,8.0,248.0,100.0,2.0
54,1,1.0,4.0,1.024,1.398,2,1.0,21,2,7.0,6.0,613.0,408.0,1.0
54,2,2.0,4.0,0.559,1.448,2,1.0,22,2,8.0,8.0,3412.0,3412.0,0.0
54,1,1.0,1.0,1.519,1.505,2,1.0,23,2,9.0,9.0,707.0,889.0,1.0
54,2,2.0,3.0,0.919,1.345,2,1.0,24,2,8.0,8.0,175.0,175.0,0.0
54,1,1.0,4.0,1.165,0.733,2,1.0,25,2,8.0,7.0,1124.0,100.0,2.0
54,1,1.0,2.0,2.08,1.452,2,1.0,26,2,9.0,10.0,653.0,6216.0,2.0
54,2,1.0,3.0,1.524,1.99,2,0.0,27,2,8.0,8.0,134.0,134.0,0.0
54,1,1.0,4.0,0.712,1.227,2,1.0,28,2,7.0,7.0,126.0,126.0,1.0
54,2,2.0,2.0,1.579,2.652,2,1.0,29,2,8.0,8.0,455.0,455.0,0.0
54,2,1.0,3.0,1.347,1.868,2,0.0,30,2,8.0,8.0,896.0,896.0,0.0
54,2,2.0,1.0,1.171,1.412,2,1.0,31,2,8.0,8.0,104.0,104.0,0.0
54,2,NAN,2.0,NAN,0.115,2,NAN,32,2,8.0,8.0,857.0,857.0,0.0
55,1,1.0,2.0,2.021,0.882,2,1.0,18,2,8.0,6.0,1026.0,345.0,2.0
55,1,1.0,4.0,1.447,0.972,2,1.0,19,2,8.0,7.0,1124.0,100.0,2.0
55,1,1.0,4.0,0.813,1.611,2,1.0,20,2,7.0,6.0,613.0,408.0,1.0
55,1,1.0,4.0,0.948,0.364,2,1.0,21,2,9.0,10.0,653.0,6216.0,2.0
55,1,1.0,4.0,0.951,1.071,2,1.0,22,2,8.0,8.0,248.0,100.0,2.0
55,2,2.0,4.0,0.545,0.955,2,1.0,23,2,8.0,8.0,104.0,104.0,0.0
55,2,2.0,4.0,0.495,0.33,2,1.0,24,2,8.0,8.0,134.0,134.0,0.0
55,2,1.0,2.0,2.038,0.611,2,0.0,25,2,8.0,8.0,175.0,175.0,0.0
55,2,1.0,4.0,0.66,0.871,2,0.0,26,2,8.0,8.0,896.0,896.0,0.0
55,1,1.0,4.0,0.748,0.732,2,1.0,27,2,9.0,9.0,707.0,889.0,1.0
55,2,2.0,2.0,1.595,0.778,2,1.0,28,2,8.0,8.0,455.0,455.0,0.0
55,1,1.0,4.0,0.823,0.693,2,1.0,29,2,7.0,7.0,126.0,126.0,1.0
55,2,1.0,3.0,1.499,1.55,2,0.0,30,2,8.0,8.0,594.0,594.0,0.0
55,2,2.0,3.0,1.313,0.475,2,1.0,31,2,8.0,8.0,3412.0,3412.0,0.0
55,2,1.0,3.0,2.6,1.52,2,0.0,32,2,8.0,8.0,857.0,857.0,0.0
56,2,1.0,2.0,1.62,2.301,2,0.0,18,2,8.0,8.0,104.0,104.0,0.0
56,1,1.0,2.0,1.687,2.971,2,1.0,19,2,7.0,7.0,126.0,126.0,1.0
56,1,1.0,2.0,2.883,2.043,2,1.0,20,2,9.0,10.0,653.0,6216.0,2.0
56,2,1.0,2.0,0.812,0.403,2,0.0,21,2,8.0,8.0,175.0,175.0,0.0
56,1,1.0,2.0,1.036,0.547,2,1.0,22,2,8.0,7.0,1124.0,100.0,2.0
56,2,1.0,2.0,1.207,0.59,2,0.0,23,2,8.0,8.0,857.0,857.0,0.0
56,2,1.0,2.0,1.064,0.481,2,0.0,24,2,8.0,8.0,896.0,896.0,0.0
56,1,1.0,2.0,2.108,1.245,2,1.0,25,2,9.0,9.0,707.0,889.0,1.0
56,1,2.0,4.0,1.622,1.241,2,0.0,26,2,7.0,6.0,613.0,408.0,1.0
56,1,1.0,2.0,1.773,0.55,2,1.0,27,2,8.0,8.0,248.0,100.0,2.0
56,2,1.0,2.0,1.787,0.493,2,0.0,28,2,8.0,8.0,455.0,455.0,0.0
56,1,1.0,2.0,1.319,0.222,2,1.0,29,2,8.0,6.0,1026.0,345.0,2.0
56,2,2.0,4.0,1.463,1.133,2,1.0,30,2,8.0,8.0,134.0,134.0,0.0
56,2,1.0,2.0,1.497,0.442,2,0.0,31,2,8.0,8.0,3412.0,3412.0,0.0
56,2,2.0,4.0,1.237,0.97,2,1.0,32,2,8.0,8.0,594.0,594.0,0.0
57,2,1.0,3.0,1.386,1.601,2,0.0,18,2,8.0,8.0,594.0,594.0,0.0
57,2,1.0,2.0,1.407,0.758,2,0.0,19,2,8.0,8.0,104.0,104.0,0.0
57,1,1.0,4.0,1.475,1.255,2,1.0,20,2,8.0,7.0,1124.0,100.0,2.0
57,2,2.0,4.0,1.152,1.409,2,1.0,21,2,8.0,8.0,857.0,857.0,0.0
57,1,1.0,2.0,1.396,1.195,2,1.0,22,2,8.0,6.0,1026.0,345.0,2.0
57,1,1.0,4.0,1.144,1.129,2,1.0,23,2,7.0,6.0,613.0,408.0,1.0
57,2,2.0,2.0,1.402,0.736,2,1.0,24,2,8.0,8.0,134.0,134.0,0.0
57,2,2.0,2.0,2.175,0.967,2,1.0,25,2,8.0,8.0,896.0,896.0,0.0
57,1,1.0,4.0,1.117,1.647,2,1.0,26,2,7.0,7.0,126.0,126.0,1.0
57,1,1.0,2.0,1.594,0.585,2,1.0,27,2,9.0,9.0,707.0,889.0,1.0
57,1,2.0,2.0,2.128,1.45,2,0.0,28,2,9.0,10.0,653.0,6216.0,2.0
57,2,1.0,1.0,1.373,1.445,2,0.0,29,2,8.0,8.0,175.0,175.0,0.0
57,2,2.0,2.0,1.677,1.017,2,1.0,30,2,8.0,8.0,455.0,455.0,0.0
57,1,2.0,1.0,1.954,0.723,2,0.0,31,2,8.0,8.0,248.0,100.0,2.0
57,2,2.0,2.0,1.895,1.131,2,1.0,32,2,8.0,8.0,3412.0,3412.0,0.0
58,2,2.0,2.0,2.712,1.307,2,1.0,18,2,8.0,8.0,134.0,134.0,0.0
58,1,1.0,2.0,2.6,1.6,2,1.0,19,2,7.0,6.0,613.0,408.0,1.0
58,1,1.0,3.0,2.194,1.353,2,1.0,20,2,8.0,8.0,248.0,100.0,2.0
58,2,2.0,1.0,1.524,1.03,2,1.0,21,2,8.0,8.0,594.0,594.0,0.0
58,2,2.0,4.0,1.006,1.492,2,1.0,22,2,8.0,8.0,104.0,104.0,0.0
58,1,1.0,3.0,1.066,1.359,2,1.0,23,2,9.0,9.0,707.0,889.0,1.0
58,1,1.0,2.0,1.29,1.349,2,1.0,24,2,7.0,7.0,126.0,126.0,1.0
58,1,1.0,1.0,1.169,0.946,2,1.0,25,2,8.0,6.0,1026.0,345.0,2.0
58,2,2.0,2.0,1.262,1.45,2,1.0,26,2,8.0,8.0,175.0,175.0,0.0
58,2,2.0,2.0,1.602,1.17,2,1.0,27,2,8.0,8.0,455.0,455.0,0.0
58,2,2.0,4.0,0.563,1.02,2,1.0,28,2,8.0,8.0,896.0,896.0,0.0
58,1,1.0,2.0,2.258,1.03,2,1.0,29,2,8.0,7.0,1124.0,100.0,2.0
58,1,1.0,1.0,1.407,1.43,2,1.0,30,2,9.0,10.0,653.0,6216.0,2.0
58,2,2.0,3.0,1.326,1.288,2,1.0,31,2,8.0,8.0,3412.0,3412.0,0.0
58,2,1.0,2.0,1.446,0.988,2,0.0,32,2,8.0,8.0,857.0,857.0,0.0
59,2,2.0,1.0,2.719,1.106,2,1.0,18,2,8.0,8.0,3412.0,3412.0,0.0
59,2,2.0,3.0,2.231,0.893,2,1.0,19,2,8.0,8.0,857.0,857.0,0.0
59,2,1.0,3.0,0.859,1.8,2,0.0,20,2,8.0,8.0,594.0,594.0,0.0
59,2,1.0,3.0,0.77,0.947,2,0.0,21,2,8.0,8.0,896.0,896.0,0.0
59,1,1.0,4.0,1.135,0.929,2,1.0,22,2,8.0,7.0,1124.0,100.0,2.0
59,2,NAN,2.0,NAN,0.484,2,NAN,23,2,8.0,8.0,455.0,455.0,0.0
59,1,2.0,3.0,0.786,2.082,2,0.0,24,2,9.0,9.0,707.0,889.0,1.0
59,1,1.0,4.0,1.025,1.431,2,1.0,25,2,7.0,7.0,126.0,126.0,1.0
59,2,1.0,2.0,1.04,1.349,2,0.0,26,2,8.0,8.0,104.0,104.0,0.0
59,1,2.0,2.0,1.409,1.576,2,0.0,27,2,8.0,8.0,248.0,100.0,2.0
59,1,1.0,1.0,1.386,1.746,2,1.0,28,2,8.0,6.0,1026.0,345.0,2.0
59,2,2.0,1.0,1.102,1.602,2,1.0,29,2,8.0,8.0,175.0,175.0,0.0
59,1,2.0,2.0,1.651,1.488,2,0.0,30,2,7.0,6.0,613.0,408.0,1.0
59,1,1.0,2.0,0.998,1.597,2,1.0,31,2,9.0,10.0,653.0,6216.0,2.0
59,2,2.0,2.0,1.759,1.128,2,1.0,32,2,8.0,8.0,134.0,134.0,0.0
60,1,1.0,4.0,1.546,1.26,2,1.0,18,2,7.0,6.0,613.0,408.0,1.0
60,1,NAN,1.0,NAN,2.242,2,NAN,19,2,9.0,10.0,653.0,6216.0,2.0
60,2,2.0,4.0,0.297,0.765,2,1.0,20,2,8.0,8.0,455.0,455.0,0.0
60,2,2.0,2.0,1.134,0.928,2,1.0,21,2,8.0,8.0,857.0,857.0,0.0
60,2,2.0,4.0,0.156,1.189,2,1.0,22,2,8.0,8.0,104.0,104.0,0.0
60,1,2.0,2.0,1.047,0.413,2,0.0,23,2,8.0,8.0,248.0,100.0,2.0
60,2,2.0,3.0,0.814,0.605,2,1.0,24,2,8.0,8.0,175.0,175.0,0.0
60,1,1.0,3.0,0.788,1.092,2,1.0,25,2,8.0,6.0,1026.0,345.0,2.0
60,2,1.0,3.0,0.857,0.662,2,0.0,26,2,8.0,8.0,134.0,134.0,0.0
60,1,2.0,2.0,1.197,1.005,2,0.0,27,2,9.0,9.0,707.0,889.0,1.0
60,2,1.0,2.0,0.951,0.96,2,0.0,28,2,8.0,8.0,896.0,896.0,0.0
60,2,NAN,2.0,NAN,0.05,2,NAN,29,2,8.0,8.0,594.0,594.0,0.0
60,1,1.0,3.0,0.77,0.739,2,1.0,30,2,7.0,7.0,126.0,126.0,1.0
60,2,2.0,4.0,0.47,0.723,2,1.0,31,2,8.0,8.0,3412.0,3412.0,0.0
60,1,2.0,2.0,1.54,0.47,2,0.0,32,2,8.0,7.0,1124.0,100.0,2.0
61,1,2.0,2.0,2.253,0.629,2,0.0,18,2,8.0,8.0,248.0,100.0,2.0
61,2,NAN,1.0,NAN,1.185,2,NAN,19,2,8.0,8.0,175.0,175.0,0.0
61,1,1.0,2.0,1.21,1.023,2,1.0,20,2,9.0,10.0,653.0,6216.0,2.0
61,2,2.0,2.0,1.33,1.065,2,1.0,21,2,8.0,8.0,104.0,104.0,0.0
61,2,2.0,1.0,1.09,1.019,2,1.0,22,2,8.0,8.0,134.0,134.0,0.0
61,1,1.0,2.0,1.288,0.747,2,1.0,23,2,9.0,9.0,707.0,889.0,1.0
61,2,2.0,3.0,1.515,1.337,2,1.0,24,2,8.0,8.0,896.0,896.0,0.0
61,1,1.0,4.0,1.624,2.299,2,1.0,25,2,7.0,6.0,613.0,408.0,1.0
61,2,2.0,2.0,2.624,0.827,2,1.0,26,2,8.0,8.0,857.0,857.0,0.0
61,2,2.0,2.0,1.451,0.295,2,1.0,27,2,8.0,8.0,594.0,594.0,0.0
61,1,1.0,4.0,1.337,1.598,2,1.0,28,2,7.0,7.0,126.0,126.0,1.0
61,1,2.0,2.0,1.75,0.294,2,0.0,29,2,8.0,7.0,1124.0,100.0,2.0
61,2,2.0,3.0,1.142,0.441,2,1.0,30,2,8.0,8.0,455.0,455.0,0.0
61,2,2.0,3.0,0.946,0.252,2,1.0,31,2,8.0,8.0,3412.0,3412.0,0.0
61,1,1.0,4.0,1.018,2.736,2,1.0,32,2,8.0,6.0,1026.0,345.0,2.0
62,1,1.0,4.0,1.909,1.908,2,1.0,18,2,8.0,7.0,1124.0,100.0,2.0
62,2,2.0,1.0,1.393,1.514,2,1.0,19,2,8.0,8.0,857.0,857.0,0.0
62,2,2.0,4.0,1.62,1.311,2,1.0,20,2,8.0,8.0,104.0,104.0,0.0
62,2,2.0,3.0,1.318,2.452,2,1.0,21,2,8.0,8.0,455.0,455.0,0.0
62,1,1.0,2.0,1.269,2.375,2,1.0,22,2,9.0,9.0,707.0,889.0,1.0
62,2,2.0,4.0,1.237,1.556,2,1.0,23,2,8.0,8.0,3412.0,3412.0,0.0
62,1,1.0,3.0,1.353,2.218,2,1.0,24,2,9.0,10.0,653.0,6216.0,2.0
62,2,2.0,2.0,1.387,1.548,2,1.0,25,2,8.0,8.0,134.0,134.0,0.0
62,1,1.0,3.0,1.306,2.063,2,1.0,26,2,8.0,6.0,1026.0,345.0,2.0
62,2,1.0,2.0,2.427,2.105,2,0.0,27,2,8.0,8.0,594.0,594.0,0.0
62,2,2.0,1.0,1.571,1.273,2,1.0,28,2,8.0,8.0,175.0,175.0,0.0
62,1,1.0,4.0,1.929,1.833,2,1.0,29,2,7.0,7.0,126.0,126.0,1.0
62,1,1.0,2.0,1.82,1.981,2,1.0,30,2,8.0,8.0,248.0,100.0,2.0
62,1,1.0,4.0,2.411,1.832,2,1.0,31,2,7.0,6.0,613.0,408.0,1.0
62,2,2.0,4.0,1.424,1.276,2,1.0,32,2,8.0,8.0,896.0,896.0,0.0
63,1,2.0,3.0,2.541,1.592,2,0.0,18,2,8.0,6.0,1026.0,345.0,2.0
63,1,2.0,3.0,2.23,1.558,2,0.0,19,2,8.0,7.0,1124.0,100.0,2.0
63,2,2.0,4.0,0.494,0.215,2,1.0,20,2,8.0,8.0,455.0,455.0,0.0
63,2,2.0,3.0,1.864,0.494,2,1.0,21,2,8.0,8.0,175.0,175.0,0.0
63,2,1.0,3.0,1.957,0.802,2,0.0,22,2,8.0,8.0,3412.0,3412.0,0.0
63,2,1.0,3.0,1.237,0.996,2,0.0,23,2,8.0,8.0,134.0,134.0,0.0
63,1,1.0,4.0,2.973,0.486,2,1.0,24,2,8.0,8.0,248.0,100.0,2.0
63,1,2.0,4.0,0.844,0.372,2,0.0,25,2,7.0,6.0,613.0,408.0,1.0
63,1,1.0,4.0,1.517,0.418,2,1.0,26,2,7.0,7.0,126.0,126.0,1.0
63,1,1.0,4.0,1.079,0.689,2,1.0,27,2,9.0,10.0,653.0,6216.0,2.0
63,1,2.0,3.0,2.11,0.924,2,0.0,28,2,9.0,9.0,707.0,889.0,1.0
63,2,2.0,3.0,1.243,1.869,2,1.0,29,2,8.0,8.0,857.0,857.0,0.0
63,2,1.0,4.0,0.962,0.492,2,0.0,30,2,8.0,8.0,896.0,896.0,0.0
63,2,1.0,3.0,2.744,0.766,2,0.0,31,2,8.0,8.0,594.0,594.0,0.0
63,2,2.0,3.0,2.182,1.442,2,1.0,32,2,8.0,8.0,104.0,104.0,0.0
64,2,2.0,1.0,1.762,1.025,2,1.0,18,2,8.0,8.0,594.0,594.0,0.0
64,1,2.0,3.0,1.226,2.225,2,0.0,19,2,8.0,6.0,1026.0,345.0,2.0
64,1,1.0,1.0,2.085,1.132,2,1.0,20,2,9.0,9.0,707.0,889.0,1.0
64,2,2.0,3.0,0.907,1.098,2,1.0,21,2,8.0,8.0,455.0,455.0,0.0
64,1,1.0,3.0,1.332,0.957,2,1.0,22,2,8.0,8.0,248.0,100.0,2.0
64,2,2.0,3.0,0.761,0.87,2,1.0,23,2,8.0,8.0,896.0,896.0,0.0
64,2,2.0,3.0,0.678,1.18,2,1.0,24,2,8.0,8.0,857.0,857.0,0.0
64,1,2.0,3.0,1.02,0.978,2,0.0,25,2,8.0,7.0,1124.0,100.0,2.0
64,2,2.0,1.0,0.725,1.838,2,1.0,26,2,8.0,8.0,3412.0,3412.0,0.0
64,2,2.0,4.0,0.641,1.021,2,1.0,27,2,8.0,8.0,104.0,104.0,0.0
64,1,1.0,4.0,1.029,1.258,2,1.0,28,2,7.0,7.0,126.0,126.0,1.0
64,2,1.0,1.0,1.383,1.051,2,0.0,29,2,8.0,8.0,134.0,134.0,0.0
64,1,1.0,1.0,1.182,0.602,2,1.0,30,2,9.0,10.0,653.0,6216.0,2.0
64,2,2.0,2.0,0.679,1.724,2,1.0,31,2,8.0,8.0,175.0,175.0,0.0
64,1,2.0,4.0,1.613,2.85,2,0.0,32,2,7.0,6.0,613.0,408.0,1.0
65,1,1.0,2.0,1.501,0.677,2,1.0,18,2,8.0,8.0,248.0,100.0,2.0
65,1,1.0,3.0,0.885,2.059,2,1.0,19,2,8.0,6.0,1026.0,345.0,2.0
65,2,2.0,4.0,1.87,4.703,2,1.0,20,2,8.0,8.0,104.0,104.0,0.0
65,2,2.0,1.0,1.273,8.847,2,1.0,21,2,8.0,8.0,134.0,134.0,0.0
65,2,2.0,3.0,2.348,2.23,2,1.0,22,2,8.0,8.0,896.0,896.0,0.0
65,1,1.0,2.0,2.017,6.356,2,1.0,23,2,9.0,10.0,653.0,6216.0,2.0
65,2,1.0,2.0,1.952,1.784,2,0.0,24,2,8.0,8.0,455.0,455.0,0.0
65,2,1.0,2.0,1.389,0.998,2,0.0,25,2,8.0,8.0,3412.0,3412.0,0.0
65,1,1.0,4.0,1.269,1.469,2,1.0,26,2,7.0,6.0,613.0,408.0,1.0
65,1,2.0,2.0,1.708,1.868,2,0.0,27,2,9.0,9.0,707.0,889.0,1.0
65,2,1.0,2.0,1.234,2.256,2,0.0,28,2,8.0,8.0,857.0,857.0,0.0
65,1,1.0,4.0,1.278,1.161,2,1.0,29,2,7.0,7.0,126.0,126.0,1.0
65,1,1.0,4.0,1.166,0.701,2,1.0,30,2,8.0,7.0,1124.0,100.0,2.0
65,2,2.0,2.0,1.391,1.83,2,1.0,31,2,8.0,8.0,175.0,175.0,0.0
65,2,1.0,3.0,1.347,1.282,2,0.0,32,2,8.0,8.0,594.0,594.0,0.0
66,2,2.0,4.0,0.611,1.13,2,1.0,18,2,8.0,8.0,594.0,594.0,0.0
66,1,1.0,4.0,0.582,0.908,2,1.0,19,2,7.0,7.0,126.0,126.0,1.0
66,1,1.0,3.0,0.609,1.096,2,1.0,20,2,8.0,6.0,1026.0,345.0,2.0
66,1,2.0,3.0,0.883,1.567,2,0.0,21,2,8.0,8.0,248.0,100.0,2.0
66,2,2.0,2.0,1.001,0.432,2,1.0,22,2,8.0,8.0,857.0,857.0,0.0
66,1,1.0,4.0,1.466,2.079,2,1.0,23,2,8.0,7.0,1124.0,100.0,2.0
66,2,2.0,3.0,0.535,0.817,2,1.0,24,2,8.0,8.0,896.0,896.0,0.0
66,2,2.0,3.0,0.667,1.184,2,1.0,25,2,8.0,8.0,3412.0,3412.0,0.0
66,2,1.0,2.0,0.687,1.379,2,0.0,26,2,8.0,8.0,175.0,175.0,0.0
66,1,1.0,4.0,0.652,1.473,2,1.0,27,2,7.0,6.0,613.0,408.0,1.0
66,2,2.0,3.0,0.997,0.796,2,1.0,28,2,8.0,8.0,104.0,104.0,0.0
66,2,2.0,2.0,0.654,1.444,2,1.0,29,2,8.0,8.0,134.0,134.0,0.0
66,1,1.0,3.0,0.827,1.737,2,1.0,30,2,9.0,9.0,707.0,889.0,1.0
66,2,2.0,2.0,1.781,1.149,2,1.0,31,2,8.0,8.0,455.0,455.0,0.0
66,1,1.0,3.0,0.719,1.154,2,1.0,32,2,9.0,10.0,653.0,6216.0,2.0
67,2,2.0,3.0,0.707,2.471,3,1.0,18,2,8.0,8.0,2183.0,2183.0,0.0
67,1,1.0,3.0,1.043,2.121,3,1.0,19,2,8.0,6.0,175.0,160.0,2.0
67,1,1.0,4.0,0.78,1.564,3,1.0,20,2,8.0,7.0,962.0,408.0,2.0
67,1,2.0,NAN,0.15,NAN,3,0.0,21,2,9.0,9.0,2212.0,100.0,2.0
67,2,1.0,2.0,0.485,1.89,3,0.0,22,2,8.0,8.0,328.0,328.0,0.0
67,2,2.0,3.0,0.795,1.779,3,1.0,23,2,8.0,8.0,1026.0,1026.0,0.0
67,1,1.0,4.0,1.133,1.564,3,1.0,24,2,8.0,6.0,896.0,100.0,2.0
67,1,1.0,2.0,0.847,2.034,3,1.0,25,2,8.0,7.0,976.0,283.0,2.0
67,2,2.0,4.0,1.067,0.896,3,1.0,26,2,7.0,7.0,212.0,212.0,0.0
67,1,1.0,2.0,0.86,1.747,3,1.0,27,2,9.0,9.0,120.0,1042.0,1.0
67,2,2.0,2.0,0.933,1.756,3,1.0,28,2,9.0,9.0,653.0,653.0,0.0
67,1,1.0,4.0,0.93,1.57,3,1.0,29,2,8.0,6.0,455.0,457.0,2.0
67,2,2.0,3.0,0.775,2.175,3,1.0,30,2,7.0,7.0,248.0,248.0,0.0
67,2,2.0,3.0,0.877,2.281,3,1.0,31,2,7.0,7.0,920.0,920.0,0.0
67,2,2.0,3.0,0.957,1.964,3,1.0,32,2,6.0,6.0,422.0,422.0,0.0
68,1,1.0,3.0,0.84,1.293,3,1.0,18,2,8.0,7.0,962.0,408.0,2.0
68,2,2.0,2.0,0.884,1.705,3,1.0,19,2,6.0,6.0,422.0,422.0,0.0
68,2,2.0,3.0,0.854,1.49,3,1.0,20,2,9.0,9.0,653.0,653.0,0.0
68,2,2.0,3.0,0.666,1.045,3,1.0,21,2,8.0,8.0,2183.0,2183.0,0.0
68,1,2.0,2.0,0.961,1.986,3,0.0,22,2,9.0,9.0,120.0,1042.0,1.0
68,1,1.0,3.0,0.753,1.085,3,1.0,23,2,8.0,6.0,175.0,160.0,2.0
68,1,2.0,3.0,0.695,1.108,3,0.0,24,2,9.0,9.0,2212.0,100.0,2.0
68,1,1.0,3.0,0.686,1.117,3,1.0,25,2,8.0,7.0,976.0,283.0,2.0
68,1,1.0,3.0,2.082,1.253,3,1.0,26,2,8.0,6.0,896.0,100.0,2.0
68,2,2.0,3.0,0.724,1.089,3,1.0,27,2,7.0,7.0,920.0,920.0,0.0
68,2,1.0,2.0,0.646,1.274,3,0.0,28,2,7.0,7.0,212.0,212.0,0.0
68,2,2.0,3.0,0.581,1.006,3,1.0,29,2,7.0,7.0,248.0,248.0,0.0
68,1,1.0,4.0,0.879,1.567,3,1.0,30,2,8.0,6.0,455.0,457.0,2.0
68,2,2.0,2.0,0.511,1.151,3,1.0,31,2,8.0,8.0,328.0,328.0,0.0
68,2,2.0,3.0,0.455,0.925,3,1.0,32,2,8.0,8.0,1026.0,1026.0,0.0
69,2,2.0,4.0,0.641,0.806,3,1.0,18,2,6.0,6.0,422.0,422.0,0.0
69,1,1.0,4.0,0.423,0.908,3,1.0,19,2,8.0,7.0,976.0,283.0,2.0
69,2,2.0,4.0,0.739,1.046,3,1.0,20,2,8.0,8.0,328.0,328.0,0.0
69,2,2.0,3.0,0.899,0.869,3,1.0,21,2,7.0,7.0,212.0,212.0,0.0
69,1,1.0,4.0,0.66,0.994,3,1.0,22,2,8.0,7.0,962.0,408.0,2.0
69,2,2.0,3.0,0.936,1.028,3,1.0,23,2,8.0,8.0,1026.0,1026.0,0.0
69,1,1.0,2.0,1.362,0.867,3,1.0,24,2,9.0,9.0,2212.0,100.0,2.0
69,2,2.0,2.0,0.871,1.092,3,1.0,25,2,7.0,7.0,248.0,248.0,0.0
69,1,1.0,1.0,0.852,1.411,3,1.0,26,2,9.0,9.0,120.0,1042.0,1.0
69,1,1.0,4.0,0.55,1.602,3,1.0,27,2,8.0,6.0,896.0,100.0,2.0
69,1,2.0,3.0,0.777,1.097,3,0.0,28,2,8.0,6.0,455.0,457.0,2.0
69,2,1.0,3.0,0.633,1.457,3,0.0,29,2,9.0,9.0,653.0,653.0,0.0
69,2,2.0,4.0,0.711,0.826,3,1.0,30,2,7.0,7.0,920.0,920.0,0.0
69,2,1.0,3.0,0.623,1.497,3,0.0,31,2,8.0,8.0,2183.0,2183.0,0.0
69,1,1.0,4.0,1.818,1.375,3,1.0,32,2,8.0,6.0,175.0,160.0,2.0
70,2,1.0,NAN,1.382,NAN,3,0.0,18,2,8.0,8.0,328.0,328.0,0.0
70,1,1.0,3.0,1.133,1.493,3,1.0,19,2,8.0,6.0,896.0,100.0,2.0
70,1,1.0,3.0,1.604,1.729,3,1.0,20,2,8.0,6.0,175.0,160.0,2.0
70,1,1.0,2.0,0.904,1.499,3,1.0,21,2,8.0,7.0,962.0,408.0,2.0
70,2,2.0,4.0,0.472,0.014,3,1.0,22,2,7.0,7.0,248.0,248.0,0.0
70,2,1.0,NAN,0.047,NAN,3,0.0,23,2,9.0,9.0,653.0,653.0,0.0
70,1,2.0,2.0,0.704,1.977,3,0.0,24,2,9.0,9.0,120.0,1042.0,1.0
70,1,1.0,4.0,0.945,1.352,3,1.0,25,2,8.0,7.0,976.0,283.0,2.0
70,1,1.0,3.0,0.717,1.608,3,1.0,26,2,8.0,6.0,455.0,457.0,2.0
70,2,2.0,3.0,0.637,1.338,3,1.0,27,2,8.0,8.0,1026.0,1026.0,0.0
70,1,2.0,2.0,0.793,1.655,3,0.0,28,2,9.0,9.0,2212.0,100.0,2.0
70,2,2.0,3.0,0.703,1.527,3,1.0,29,2,7.0,7.0,920.0,920.0,0.0
70,2,2.0,NAN,0.445,NAN,3,1.0,30,2,6.0,6.0,422.0,422.0,0.0
70,2,2.0,3.0,0.276,1.529,3,1.0,31,2,8.0,8.0,2183.0,2183.0,0.0
70,2,2.0,2.0,1.178,1.466,3,1.0,32,2,7.0,7.0,212.0,212.0,0.0
71,1,1.0,4.0,0.734,0.749,3,1.0,18,2,8.0,7.0,976.0,283.0,2.0
71,2,2.0,3.0,1.187,1.188,3,1.0,19,2,6.0,6.0,422.0,422.0,0.0
71,1,1.0,2.0,0.654,2.149,3,1.0,20,2,9.0,9.0,120.0,1042.0,1.0
71,1,2.0,2.0,0.67,1.75,3,0.0,21,2,9.0,9.0,2212.0,100.0,2.0
71,2,2.0,4.0,0.716,1.03,3,1.0,22,2,8.0,8.0,1026.0,1026.0,0.0
71,2,2.0,3.0,0.632,1.826,3,1.0,23,2,8.0,8.0,328.0,328.0,0.0
71,2,2.0,4.0,0.476,0.48,3,1.0,24,2,7.0,7.0,212.0,212.0,0.0
71,2,2.0,4.0,0.532,0.556,3,1.0,25,2,7.0,7.0,248.0,248.0,0.0
71,1,1.0,2.0,0.951,2.226,3,1.0,26,2,8.0,7.0,962.0,408.0,2.0
71,1,1.0,3.0,1.043,1.188,3,1.0,27,2,8.0,6.0,455.0,457.0,2.0
71,1,1.0,3.0,0.863,1.084,3,1.0,28,2,8.0,6.0,175.0,160.0,2.0
71,2,1.0,4.0,0.826,1.678,3,0.0,29,2,7.0,7.0,920.0,920.0,0.0
71,2,1.0,3.0,0.67,2.7,3,0.0,30,2,9.0,9.0,653.0,653.0,0.0
71,2,2.0,4.0,0.496,0.918,3,1.0,31,2,8.0,8.0,2183.0,2183.0,0.0
71,1,1.0,3.0,0.519,0.958,3,1.0,32,2,8.0,6.0,896.0,100.0,2.0
72,2,2.0,2.0,2.005,1.157,3,1.0,18,2,9.0,9.0,653.0,653.0,0.0
72,2,2.0,2.0,0.584,1.559,3,1.0,19,2,6.0,6.0,422.0,422.0,0.0
72,2,2.0,2.0,0.852,1.155,3,1.0,20,2,8.0,8.0,1026.0,1026.0,0.0
72,1,1.0,2.0,2.014,0.915,3,1.0,21,2,9.0,9.0,2212.0,100.0,2.0
72,1,1.0,2.0,1.844,2.656,3,1.0,22,2,8.0,7.0,962.0,408.0,2.0
72,2,2.0,2.0,1.812,1.789,3,1.0,23,2,7.0,7.0,920.0,920.0,0.0
72,1,1.0,2.0,0.584,0.926,3,1.0,24,2,9.0,9.0,120.0,1042.0,1.0
72,2,1.0,2.0,0.903,1.891,3,0.0,25,2,7.0,7.0,212.0,212.0,0.0
72,1,1.0,2.0,0.589,2.565,3,1.0,26,2,8.0,6.0,455.0,457.0,2.0
72,1,1.0,2.0,0.94,1.88,3,1.0,27,2,8.0,6.0,175.0,160.0,2.0
72,2,2.0,2.0,1.317,2.04,3,1.0,28,2,8.0,8.0,328.0,328.0,0.0
72,2,1.0,2.0,1.791,2.051,3,0.0,29,2,8.0,8.0,2183.0,2183.0,0.0
72,1,1.0,3.0,1.493,1.706,3,1.0,30,2,8.0,6.0,896.0,100.0,2.0
72,1,1.0,2.0,1.807,1.867,3,1.0,31,2,8.0,7.0,976.0,283.0,2.0
72,2,2.0,3.0,0.811,1.529,3,1.0,32,2,7.0,7.0,248.0,248.0,0.0
73,1,NAN,2.0,NAN,1.513,3,NAN,18,2,9.0,9.0,2212.0,100.0,2.0
73,2,2.0,2.0,0.705,2.25,3,1.0,19,2,8.0,8.0,1026.0,1026.0,0.0
73,1,1.0,2.0,0.2,2.249,3,1.0,20,2,9.0,9.0,120.0,1042.0,1.0
73,1,1.0,2.0,1.17,1.935,3,1.0,21,2,8.0,6.0,175.0,160.0,2.0
73,2,1.0,NAN,0.262,NAN,3,0.0,22,2,7.0,7.0,920.0,920.0,0.0
73,2,1.0,2.0,1.522,1.87,3,0.0,23,2,8.0,8.0,2183.0,2183.0,0.0
73,2,2.0,2.0,1.52,1.568,3,1.0,24,2,8.0,8.0,328.0,328.0,0.0
73,1,2.0,2.0,2.023,1.682,3,0.0,25,2,8.0,6.0,896.0,100.0,2.0
73,2,2.0,3.0,0.938,1.917,3,1.0,26,2,7.0,7.0,248.0,248.0,0.0
73,2,1.0,2.0,0.085,1.513,3,0.0,27,2,9.0,9.0,653.0,653.0,0.0
73,1,1.0,2.0,0.51,1.816,3,1.0,28,2,8.0,7.0,962.0,408.0,2.0
73,1,2.0,4.0,0.361,1.672,3,0.0,29,2,8.0,6.0,455.0,457.0,2.0
73,2,2.0,3.0,0.749,2.156,3,1.0,30,2,6.0,6.0,422.0,422.0,0.0
73,1,2.0,2.0,1.136,1.584,3,0.0,31,2,8.0,7.0,976.0,283.0,2.0
73,2,2.0,3.0,0.473,2.286,3,1.0,32,2,7.0,7.0,212.0,212.0,0.0
74,1,1.0,2.0,2.08,1.919,3,1.0,18,2,8.0,6.0,455.0,457.0,2.0
74,1,2.0,2.0,1.921,2.083,3,0.0,19,2,8.0,6.0,896.0,100.0,2.0
74,2,NAN,3.0,NAN,2.935,3,NAN,20,2,7.0,7.0,920.0,920.0,0.0
74,2,1.0,2.0,2.225,1.891,3,0.0,21,2,8.0,8.0,328.0,328.0,0.0
74,2,1.0,2.0,0.715,2.955,3,0.0,22,2,8.0,8.0,1026.0,1026.0,0.0
74,2,1.0,2.0,1.649,1.485,3,0.0,23,2,6.0,6.0,422.0,422.0,0.0
74,1,1.0,2.0,1.732,2.069,3,1.0,24,2,8.0,7.0,976.0,283.0,2.0
74,2,1.0,1.0,2.397,1.875,3,0.0,25,2,7.0,7.0,212.0,212.0,0.0
74,1,1.0,1.0,2.735,2.225,3,1.0,26,2,9.0,9.0,2212.0,100.0,2.0
74,2,1.0,NAN,0.332,NAN,3,0.0,27,2,9.0,9.0,653.0,653.0,0.0
74,2,2.0,3.0,2.433,2.187,3,1.0,28,2,7.0,7.0,248.0,248.0,0.0
74,2,2.0,3.0,1.413,2.15,3,1.0,29,2,8.0,8.0,2183.0,2183.0,0.0
74,1,1.0,2.0,0.989,1.89,3,1.0,30,2,8.0,6.0,175.0,160.0,2.0
74,1,1.0,NAN,1.037,NAN,3,1.0,31,2,9.0,9.0,120.0,1042.0,1.0
74,1,1.0,NAN,2.186,NAN,3,1.0,32,2,8.0,7.0,962.0,408.0,2.0
75,2,2.0,1.0,1.058,0.031,3,1.0,18,2,8.0,8.0,1026.0,1026.0,0.0
75,2,1.0,1.0,2.038,1.1,3,0.0,19,2,7.0,7.0,920.0,920.0,0.0
75,1,1.0,1.0,1.963,0.854,3,1.0,20,2,8.0,7.0,976.0,283.0,2.0
75,2,2.0,2.0,1.756,0.908,3,1.0,21,2,7.0,7.0,212.0,212.0,0.0
75,1,1.0,3.0,2.97,2.894,3,1.0,22,2,8.0,6.0,175.0,160.0,2.0
75,1,1.0,NAN,1.89,NAN,3,1.0,23,2,8.0,6.0,896.0,100.0,2.0
75,1,1.0,2.0,0.97,1.437,3,1.0,24,2,8.0,6.0,455.0,457.0,2.0
75,2,2.0,2.0,1.861,0.329,3,1.0,25,2,9.0,9.0,653.0,653.0,0.0
75,2,2.0,3.0,1.103,1.352,3,1.0,26,2,8.0,8.0,2183.0,2183.0,0.0
75,2,2.0,1.0,1.613,1.305,3,1.0,27,2,7.0,7.0,248.0,248.0,0.0
75,1,2.0,2.0,0.47,1.611,3,0.0,28,2,8.0,7.0,962.0,408.0,2.0
75,2,1.0,2.0,0.591,0.899,3,0.0,29,2,6.0,6.0,422.0,422.0,0.0
75,1,1.0,2.0,1.805,0.552,3,1.0,30,2,9.0,9.0,120.0,1042.0,1.0
75,1,NAN,NAN,NAN,NAN,3,NAN,31,2,9.0,9.0,2212.0,100.0,2.0
75,2,1.0,3.0,1.43,1.428,3,0.0,32,2,8.0,8.0,328.0,328.0,0.0
76,2,2.0,1.0,1.064,1.787,3,1.0,18,2,9.0,9.0,653.0,653.0,0.0
76,1,1.0,4.0,1.612,1.039,3,1.0,19,2,8.0,7.0,976.0,283.0,2.0
76,1,1.0,2.0,0.825,2.615,3,1.0,20,2,9.0,9.0,120.0,1042.0,1.0
76,2,2.0,3.0,0.706,1.948,3,1.0,21,2,8.0,8.0,328.0,328.0,0.0
76,2,2.0,3.0,2.586,2.336,3,1.0,22,2,7.0,7.0,248.0,248.0,0.0
76,1,1.0,3.0,0.632,1.551,3,1.0,23,2,8.0,6.0,175.0,160.0,2.0
76,1,2.0,2.0,0.598,0.806,3,0.0,24,2,9.0,9.0,2212.0,100.0,2.0
76,2,2.0,3.0,0.632,1.484,3,1.0,25,2,6.0,6.0,422.0,422.0,0.0
76,2,1.0,3.0,0.599,2.29,3,0.0,26,2,8.0,8.0,1026.0,1026.0,0.0
76,1,1.0,4.0,0.545,1.642,3,1.0,27,2,8.0,6.0,896.0,100.0,2.0
76,2,2.0,3.0,0.901,1.014,3,1.0,28,2,7.0,7.0,212.0,212.0,0.0
76,1,1.0,3.0,0.434,2.197,3,1.0,29,2,8.0,6.0,455.0,457.0,2.0
76,2,2.0,3.0,0.585,1.744,3,1.0,30,2,7.0,7.0,920.0,920.0,0.0
76,1,1.0,3.0,0.713,0.888,3,1.0,31,2,8.0,7.0,962.0,408.0,2.0
76,2,NAN,3.0,NAN,1.968,3,NAN,32,2,8.0,8.0,2183.0,2183.0,0.0
77,1,1.0,4.0,0.863,0.971,3,1.0,18,2,8.0,6.0,896.0,100.0,2.0
77,2,2.0,3.0,1.436,2.879,3,1.0,19,2,8.0,8.0,1026.0,1026.0,0.0
77,1,1.0,4.0,1.64,1.281,3,1.0,20,2,8.0,7.0,976.0,283.0,2.0
77,2,2.0,3.0,1.705,1.827,3,1.0,21,2,7.0,7.0,248.0,248.0,0.0
77,2,2.0,3.0,2.097,1.731,3,1.0,22,2,8.0,8.0,328.0,328.0,0.0
77,2,2.0,4.0,0.898,0.8,3,1.0,23,2,6.0,6.0,422.0,422.0,0.0
77,1,1.0,4.0,0.67,0.906,3,1.0,24,2,8.0,6.0,455.0,457.0,2.0
77,1,1.0,4.0,1.022,1.709,3,1.0,25,2,9.0,9.0,2212.0,100.0,2.0
77,1,1.0,4.0,0.75,0.858,3,1.0,26,2,8.0,6.0,175.0,160.0,2.0
77,2,2.0,3.0,0.91,1.706,3,1.0,27,2,8.0,8.0,2183.0,2183.0,0.0
77,1,1.0,4.0,0.708,0.979,3,1.0,28,2,8.0,7.0,962.0,408.0,2.0
77,2,2.0,3.0,1.366,1.72,3,1.0,29,2,7.0,7.0,920.0,920.0,0.0
77,2,2.0,3.0,1.635,1.667,3,1.0,30,2,7.0,7.0,212.0,212.0,0.0
77,2,2.0,3.0,2.212,1.746,3,1.0,31,2,9.0,9.0,653.0,653.0,0.0
77,1,1.0,4.0,0.935,2.699,3,1.0,32,2,9.0,9.0,120.0,1042.0,1.0
78,1,1.0,NAN,0.926,NAN,3,1.0,18,2,8.0,6.0,896.0,100.0,2.0
78,2,2.0,4.0,0.943,2.865,3,1.0,19,2,7.0,7.0,248.0,248.0,0.0
78,1,1.0,4.0,0.942,2.749,3,1.0,20,2,8.0,6.0,175.0,160.0,2.0
78,2,1.0,4.0,0.901,2.264,3,0.0,21,2,9.0,9.0,653.0,653.0,0.0
78,1,1.0,4.0,0.822,2.195,3,1.0,22,2,8.0,7.0,962.0,408.0,2.0
78,2,2.0,4.0,1.373,2.416,3,1.0,23,2,7.0,7.0,212.0,212.0,0.0
78,2,1.0,4.0,0.581,1.754,3,0.0,24,2,8.0,8.0,1026.0,1026.0,0.0
78,1,1.0,4.0,0.671,1.668,3,1.0,25,2,8.0,7.0,976.0,283.0,2.0
78,1,2.0,4.0,1.016,2.277,3,0.0,26,2,9.0,9.0,2212.0,100.0,2.0
78,2,2.0,NAN,1.153,NAN,3,1.0,27,2,8.0,8.0,2183.0,2183.0,0.0
78,2,2.0,4.0,0.585,2.493,3,1.0,28,2,6.0,6.0,422.0,422.0,0.0
78,2,2.0,NAN,1.216,NAN,3,1.0,29,2,8.0,8.0,328.0,328.0,0.0
78,2,2.0,NAN,0.929,NAN,3,1.0,30,2,7.0,7.0,920.0,920.0,0.0
78,1,2.0,4.0,0.976,1.543,3,0.0,31,2,9.0,9.0,120.0,1042.0,1.0
78,1,2.0,4.0,1.052,0.527,3,0.0,32,2,8.0,6.0,455.0,457.0,2.0
79,1,1.0,4.0,1.259,1.962,3,1.0,18,2,8.0,6.0,896.0,100.0,2.0
79,2,1.0,1.0,1.049,2.427,3,0.0,19,2,8.0,8.0,328.0,328.0,0.0
79,1,1.0,1.0,0.916,2.288,3,1.0,20,2,9.0,9.0,2212.0,100.0,2.0
79,1,2.0,3.0,1.596,1.714,3,0.0,21,2,8.0,6.0,175.0,160.0,2.0
79,1,2.0,1.0,0.696,2.543,3,0.0,22,2,8.0,6.0,455.0,457.0,2.0
79,1,2.0,1.0,0.779,1.279,3,0.0,23,2,8.0,7.0,962.0,408.0,2.0
79,2,1.0,2.0,0.729,2.078,3,0.0,24,2,9.0,9.0,653.0,653.0,0.0
79,2,2.0,1.0,0.607,1.167,3,1.0,25,2,7.0,7.0,920.0,920.0,0.0
79,1,2.0,1.0,0.563,1.305,3,0.0,26,2,9.0,9.0,120.0,1042.0,1.0
79,2,2.0,1.0,0.87,1.007,3,1.0,27,2,7.0,7.0,212.0,212.0,0.0
79,2,2.0,1.0,1.189,1.973,3,1.0,28,2,8.0,8.0,2183.0,2183.0,0.0
79,2,1.0,3.0,1.192,1.544,3,0.0,29,2,8.0,8.0,1026.0,1026.0,0.0
79,1,2.0,NAN,1.282,NAN,3,0.0,30,2,8.0,7.0,976.0,283.0,2.0
79,2,2.0,4.0,1.201,2.353,3,1.0,31,2,7.0,7.0,248.0,248.0,0.0
79,2,2.0,1.0,1.775,2.084,3,1.0,32,2,6.0,6.0,422.0,422.0,0.0
80,2,2.0,3.0,0.937,0.834,3,1.0,18,2,8.0,8.0,328.0,328.0,0.0
80,1,1.0,1.0,2.57,2.79,3,1.0,19,2,8.0,7.0,962.0,408.0,2.0
80,2,1.0,NAN,0.241,NAN,3,0.0,20,2,6.0,6.0,422.0,422.0,0.0
80,1,1.0,2.0,0.736,2.193,3,1.0,21,2,8.0,7.0,976.0,283.0,2.0
80,1,1.0,4.0,0.925,2.304,3,1.0,22,2,8.0,6.0,455.0,457.0,2.0
80,1,1.0,NAN,1.038,NAN,3,1.0,23,2,8.0,6.0,175.0,160.0,2.0
80,2,2.0,1.0,0.899,0.135,3,1.0,24,2,7.0,7.0,212.0,212.0,0.0
80,2,1.0,4.0,0.274,0.363,3,0.0,25,2,7.0,7.0,248.0,248.0,0.0
80,2,2.0,2.0,1.295,1.573,3,1.0,26,2,8.0,8.0,2183.0,2183.0,0.0
80,2,1.0,2.0,0.93,1.578,3,0.0,27,2,9.0,9.0,653.0,653.0,0.0
80,1,1.0,4.0,0.942,1.64,3,1.0,28,2,9.0,9.0,120.0,1042.0,1.0
80,1,1.0,2.0,1.366,1.187,3,1.0,29,2,9.0,9.0,2212.0,100.0,2.0
80,2,2.0,2.0,1.191,0.868,3,1.0,30,2,8.0,8.0,1026.0,1026.0,0.0
80,1,1.0,2.0,0.862,1.088,3,1.0,31,2,8.0,6.0,896.0,100.0,2.0
80,2,2.0,4.0,0.699,1.462,3,1.0,32,2,7.0,7.0,920.0,920.0,0.0
81,2,2.0,4.0,1.062,1.233,3,1.0,18,2,7.0,7.0,920.0,920.0,0.0
81,1,1.0,4.0,1.368,1.511,3,1.0,19,2,8.0,6.0,455.0,457.0,2.0
81,2,NAN,3.0,NAN,1.495,3,NAN,20,2,6.0,6.0,422.0,422.0,0.0
81,2,2.0,3.0,0.944,0.566,3,1.0,21,2,7.0,7.0,248.0,248.0,0.0
81,1,1.0,2.0,0.593,0.8,3,1.0,22,2,9.0,9.0,120.0,1042.0,1.0
81,2,2.0,2.0,1.537,1.073,3,1.0,23,2,8.0,8.0,1026.0,1026.0,0.0
81,1,1.0,1.0,1.107,2.006,3,1.0,24,2,8.0,6.0,175.0,160.0,2.0
81,1,1.0,2.0,1.098,2.165,3,1.0,25,2,8.0,6.0,896.0,100.0,2.0
81,2,2.0,4.0,1.105,1.571,3,1.0,26,2,7.0,7.0,212.0,212.0,0.0
81,1,1.0,2.0,1.569,0.599,3,1.0,27,2,8.0,7.0,962.0,408.0,2.0
81,2,2.0,2.0,0.59,1.614,3,1.0,28,2,8.0,8.0,328.0,328.0,0.0
81,1,1.0,4.0,0.672,1.735,3,1.0,29,2,8.0,7.0,976.0,283.0,2.0
81,2,2.0,3.0,0.559,1.656,3,1.0,30,2,8.0,8.0,2183.0,2183.0,0.0
81,2,2.0,2.0,0.82,0.76,3,1.0,31,2,9.0,9.0,653.0,653.0,0.0
81,1,2.0,3.0,0.312,0.677,3,0.0,32,2,9.0,9.0,2212.0,100.0,2.0
82,1,1.0,1.0,0.852,1.203,3,1.0,18,2,8.0,6.0,896.0,100.0,2.0
82,1,2.0,2.0,2.28,1.74,3,0.0,19,2,8.0,7.0,976.0,283.0,2.0
82,2,2.0,3.0,0.641,2.493,3,1.0,20,2,7.0,7.0,212.0,212.0,0.0
82,1,2.0,2.0,2.073,1.745,3,0.0,21,2,9.0,9.0,2212.0,100.0,2.0
82,2,2.0,3.0,1.023,2.252,3,1.0,22,2,7.0,7.0,248.0,248.0,0.0
82,2,2.0,3.0,0.709,2.416,3,1.0,23,2,7.0,7.0,920.0,920.0,0.0
82,1,1.0,3.0,0.674,2.137,3,1.0,24,2,8.0,6.0,175.0,160.0,2.0
82,2,2.0,2.0,0.988,1.589,3,1.0,25,2,8.0,8.0,1026.0,1026.0,0.0
82,2,2.0,3.0,0.673,1.312,3,1.0,26,2,9.0,9.0,653.0,653.0,0.0
82,1,2.0,1.0,0.825,2.681,3,0.0,27,2,8.0,6.0,455.0,457.0,2.0
82,2,2.0,3.0,0.599,1.94,3,1.0,28,2,6.0,6.0,422.0,422.0,0.0
82,2,2.0,2.0,0.944,2.167,3,1.0,29,2,8.0,8.0,2183.0,2183.0,0.0
82,1,1.0,NAN,1.02,NAN,3,1.0,30,2,9.0,9.0,120.0,1042.0,1.0
82,2,1.0,1.0,1.017,1.428,3,0.0,31,2,8.0,8.0,328.0,328.0,0.0
82,1,1.0,1.0,1.422,2.909,3,1.0,32,2,8.0,7.0,962.0,408.0,2.0
83,2,2.0,3.0,1.183,1.267,3,1.0,18,2,8.0,8.0,594.0,594.0,0.0
83,1,2.0,4.0,0.744,0.959,3,0.0,19,2,8.0,8.0,248.0,100.0,2.0
83,2,2.0,4.0,1.223,2.835,3,1.0,20,2,8.0,8.0,3412.0,3412.0,0.0
83,2,2.0,NAN,0.309,NAN,3,1.0,21,2,8.0,8.0,857.0,857.0,0.0
83,2,2.0,4.0,1.291,1.108,3,1.0,22,2,8.0,8.0,134.0,134.0,0.0
83,1,1.0,1.0,2.165,2.935,3,1.0,23,2,9.0,9.0,707.0,889.0,1.0
83,1,1.0,4.0,0.95,0.919,3,1.0,24,2,7.0,7.0,126.0,126.0,1.0
83,2,2.0,4.0,0.797,1.273,3,1.0,25,2,8.0,8.0,455.0,455.0,0.0
83,2,2.0,4.0,1.372,0.759,3,1.0,26,2,8.0,8.0,896.0,896.0,0.0
83,2,2.0,3.0,1.566,2.792,3,1.0,27,2,8.0,8.0,104.0,104.0,0.0
83,1,1.0,4.0,1.185,1.352,3,1.0,28,2,8.0,7.0,1124.0,100.0,2.0
83,2,2.0,3.0,1.381,1.085,3,1.0,29,2,8.0,8.0,175.0,175.0,0.0
83,1,2.0,3.0,2.632,1.365,3,0.0,30,2,9.0,10.0,653.0,6216.0,2.0
83,1,1.0,4.0,1.307,1.373,3,1.0,31,2,8.0,6.0,1026.0,345.0,2.0
83,1,1.0,4.0,0.871,1.201,3,1.0,32,2,7.0,6.0,613.0,408.0,1.0
84,2,2.0,3.0,0.477,2.496,3,1.0,18,2,8.0,8.0,175.0,175.0,0.0
84,2,2.0,3.0,0.442,1.999,3,1.0,19,2,8.0,8.0,857.0,857.0,0.0
84,1,1.0,3.0,0.965,1.624,3,1.0,20,2,9.0,10.0,653.0,6216.0,2.0
84,1,1.0,4.0,0.757,1.614,3,1.0,21,2,8.0,6.0,1026.0,345.0,2.0
84,2,1.0,NAN,1.561,NAN,3,0.0,22,2,8.0,8.0,104.0,104.0,0.0
84,2,1.0,3.0,0.516,1.944,3,0.0,23,2,8.0,8.0,896.0,896.0,0.0
84,2,2.0,4.0,1.0,1.553,3,1.0,24,2,8.0,8.0,455.0,455.0,0.0
84,1,2.0,3.0,0.68,2.266,3,0.0,25,2,9.0,9.0,707.0,889.0,1.0
84,1,2.0,4.0,0.64,0.916,3,0.0,26,2,7.0,6.0,613.0,408.0,1.0
84,2,1.0,3.0,1.079,2.654,3,0.0,27,2,8.0,8.0,3412.0,3412.0,0.0
84,1,1.0,4.0,0.6,0.599,3,1.0,28,2,7.0,7.0,126.0,126.0,1.0
84,2,2.0,4.0,0.485,1.694,3,1.0,29,2,8.0,8.0,134.0,134.0,0.0
84,1,1.0,NAN,1.217,NAN,3,1.0,30,2,8.0,8.0,248.0,100.0,2.0
84,2,1.0,3.0,1.701,2.806,3,0.0,31,2,8.0,8.0,594.0,594.0,0.0
84,1,1.0,4.0,1.032,0.428,3,1.0,32,2,8.0,7.0,1124.0,100.0,2.0
85,1,1.0,4.0,0.818,2.678,3,1.0,18,2,7.0,6.0,613.0,408.0,1.0
85,1,1.0,4.0,0.695,0.929,3,1.0,19,2,8.0,6.0,1026.0,345.0,2.0
85,2,2.0,4.0,0.945,0.56,3,1.0,20,2,8.0,8.0,857.0,857.0,0.0
85,2,1.0,2.0,1.162,1.149,3,0.0,21,2,8.0,8.0,594.0,594.0,0.0
85,2,1.0,2.0,1.466,0.895,3,0.0,22,2,8.0,8.0,896.0,896.0,0.0
85,1,1.0,4.0,0.736,1.099,3,1.0,23,2,7.0,7.0,126.0,126.0,1.0
85,2,2.0,4.0,0.758,0.533,3,1.0,24,2,8.0,8.0,134.0,134.0,0.0
85,2,2.0,2.0,1.012,0.954,3,1.0,25,2,8.0,8.0,175.0,175.0,0.0
85,1,1.0,2.0,0.706,1.189,3,1.0,26,2,8.0,7.0,1124.0,100.0,2.0
85,1,1.0,4.0,0.733,1.044,3,1.0,27,2,8.0,8.0,248.0,100.0,2.0
85,2,2.0,4.0,0.586,0.751,3,1.0,28,2,8.0,8.0,455.0,455.0,0.0
85,1,1.0,4.0,0.628,1.873,3,1.0,29,2,9.0,10.0,653.0,6216.0,2.0
85,1,1.0,4.0,0.618,0.996,3,1.0,30,2,9.0,9.0,707.0,889.0,1.0
85,2,2.0,2.0,0.773,1.063,3,1.0,31,2,8.0,8.0,3412.0,3412.0,0.0
85,2,1.0,4.0,0.733,1.028,3,0.0,32,2,8.0,8.0,104.0,104.0,0.0
86,2,2.0,2.0,0.565,1.226,3,1.0,18,2,8.0,8.0,104.0,104.0,0.0
86,2,2.0,2.0,0.754,1.369,3,1.0,19,2,8.0,8.0,175.0,175.0,0.0
86,1,2.0,2.0,0.713,1.167,3,0.0,20,2,9.0,10.0,653.0,6216.0,2.0
86,1,2.0,3.0,0.954,1.955,3,0.0,21,2,9.0,9.0,707.0,889.0,1.0
86,1,2.0,2.0,0.702,0.939,3,0.0,22,2,8.0,8.0,248.0,100.0,2.0
86,2,2.0,3.0,0.634,1.316,3,1.0,23,2,8.0,8.0,134.0,134.0,0.0
86,1,1.0,3.0,0.675,1.518,3,1.0,24,2,8.0,7.0,1124.0,100.0,2.0
86,2,2.0,2.0,0.473,0.813,3,1.0,25,2,8.0,8.0,896.0,896.0,0.0
86,1,1.0,2.0,0.637,0.985,3,1.0,26,2,7.0,7.0,126.0,126.0,1.0
86,2,2.0,2.0,0.955,1.986,3,1.0,27,2,8.0,8.0,857.0,857.0,0.0
86,1,1.0,3.0,0.593,1.415,3,1.0,28,2,8.0,6.0,1026.0,345.0,2.0
86,2,2.0,2.0,0.406,1.107,3,1.0,29,2,8.0,8.0,3412.0,3412.0,0.0
86,1,1.0,4.0,0.748,0.945,3,1.0,30,2,7.0,6.0,613.0,408.0,1.0
86,2,2.0,2.0,0.485,0.875,3,1.0,31,2,8.0,8.0,455.0,455.0,0.0
86,2,2.0,3.0,1.102,1.53,3,1.0,32,2,8.0,8.0,594.0,594.0,0.0
87,2,2.0,2.0,1.152,2.58,3,1.0,18,2,8.0,8.0,3412.0,3412.0,0.0
87,1,1.0,2.0,1.199,2.537,3,1.0,19,2,9.0,10.0,653.0,6216.0,2.0
87,2,2.0,2.0,1.909,2.533,3,1.0,20,2,8.0,8.0,896.0,896.0,0.0
87,1,2.0,2.0,0.797,2.865,3,0.0,21,2,8.0,8.0,248.0,100.0,2.0
87,2,1.0,2.0,0.754,2.627,3,0.0,22,2,8.0,8.0,175.0,175.0,0.0
87,1,1.0,4.0,0.722,1.802,3,1.0,23,2,8.0,7.0,1124.0,100.0,2.0
87,2,2.0,4.0,0.516,0.677,3,1.0,24,2,8.0,8.0,455.0,455.0,0.0
87,2,2.0,4.0,0.515,0.71,3,1.0,25,2,8.0,8.0,104.0,104.0,0.0
87,1,1.0,4.0,1.123,1.739,3,1.0,26,2,7.0,7.0,126.0,126.0,1.0
87,2,2.0,3.0,1.732,2.699,3,1.0,27,2,8.0,8.0,594.0,594.0,0.0
87,2,2.0,3.0,0.992,2.262,3,1.0,28,2,8.0,8.0,857.0,857.0,0.0
87,2,2.0,4.0,1.002,1.195,3,1.0,29,2,8.0,8.0,134.0,134.0,0.0
87,1,1.0,4.0,0.803,1.386,3,1.0,30,2,8.0,6.0,1026.0,345.0,2.0
87,1,1.0,4.0,0.767,1.174,3,1.0,31,2,7.0,6.0,613.0,408.0,1.0
87,1,1.0,4.0,0.807,1.956,3,1.0,32,2,9.0,9.0,707.0,889.0,1.0
88,2,1.0,2.0,1.244,1.287,3,0.0,18,2,8.0,8.0,857.0,857.0,0.0
88,2,1.0,2.0,0.618,1.895,3,0.0,19,2,8.0,8.0,455.0,455.0,0.0
88,2,2.0,3.0,1.085,2.249,3,1.0,20,2,8.0,8.0,896.0,896.0,0.0
88,1,1.0,2.0,1.202,1.517,3,1.0,21,2,8.0,7.0,1124.0,100.0,2.0
88,2,2.0,2.0,1.525,1.077,3,1.0,22,2,8.0,8.0,175.0,175.0,0.0
88,1,2.0,4.0,1.426,1.91,3,0.0,23,2,7.0,6.0,613.0,408.0,1.0
88,2,2.0,2.0,0.859,1.238,3,1.0,24,2,8.0,8.0,594.0,594.0,0.0
88,2,2.0,2.0,0.748,1.276,3,1.0,25,2,8.0,8.0,3412.0,3412.0,0.0
88,1,1.0,2.0,1.091,1.205,3,1.0,26,2,8.0,8.0,248.0,100.0,2.0
88,1,1.0,3.0,1.396,1.662,3,1.0,27,2,7.0,7.0,126.0,126.0,1.0
88,2,1.0,2.0,0.996,1.319,3,0.0,28,2,8.0,8.0,104.0,104.0,0.0
88,1,1.0,2.0,2.712,1.49,3,1.0,29,2,9.0,10.0,653.0,6216.0,2.0
88,2,2.0,3.0,0.926,1.512,3,1.0,30,2,8.0,8.0,134.0,134.0,0.0
88,1,1.0,3.0,1.042,1.41,3,1.0,31,2,8.0,6.0,1026.0,345.0,2.0
88,1,1.0,3.0,0.839,1.726,3,1.0,32,2,9.0,9.0,707.0,889.0,1.0
89,2,2.0,2.0,0.52,1.353,3,1.0,18,2,8.0,8.0,134.0,134.0,0.0
89,2,2.0,4.0,0.79,1.199,3,1.0,19,2,8.0,8.0,455.0,455.0,0.0
89,2,2.0,4.0,0.478,0.535,3,1.0,20,2,8.0,8.0,594.0,594.0,0.0
89,2,2.0,4.0,0.74,0.972,3,1.0,21,2,8.0,8.0,3412.0,3412.0,0.0
89,2,2.0,4.0,0.943,1.045,3,1.0,22,2,8.0,8.0,104.0,104.0,0.0
89,1,2.0,2.0,0.593,2.265,3,0.0,23,2,9.0,9.0,707.0,889.0,1.0
89,2,2.0,2.0,0.912,1.637,3,1.0,24,2,8.0,8.0,896.0,896.0,0.0
89,2,2.0,2.0,0.556,2.35,3,1.0,25,2,8.0,8.0,857.0,857.0,0.0
89,1,1.0,4.0,0.56,1.288,3,1.0,26,2,8.0,7.0,1124.0,100.0,2.0
89,1,1.0,4.0,0.521,0.72,3,1.0,27,2,7.0,7.0,126.0,126.0,1.0
89,1,1.0,4.0,0.439,2.55,3,1.0,28,2,8.0,6.0,1026.0,345.0,2.0
89,1,1.0,NAN,1.442,NAN,3,1.0,29,2,8.0,8.0,248.0,100.0,2.0
89,1,1.0,2.0,0.787,2.045,3,1.0,30,2,9.0,10.0,653.0,6216.0,2.0
89,2,2.0,2.0,0.713,1.333,3,1.0,31,2,8.0,8.0,175.0,175.0,0.0
89,1,1.0,4.0,0.558,1.186,3,1.0,32,2,7.0,6.0,613.0,408.0,1.0
90,1,1.0,2.0,0.403,2.5,3,1.0,18,2,9.0,10.0,653.0,6216.0,2.0
90,1,2.0,3.0,0.448,2.022,3,0.0,19,2,8.0,8.0,248.0,100.0,2.0
90,1,1.0,3.0,1.628,1.732,3,1.0,20,2,8.0,6.0,1026.0,345.0,2.0
90,2,2.0,3.0,2.112,2.357,3,1.0,21,2,8.0,8.0,857.0,857.0,0.0
90,1,1.0,4.0,0.874,1.462,3,1.0,22,2,8.0,7.0,1124.0,100.0,2.0
90,2,2.0,4.0,0.485,0.903,3,1.0,23,2,8.0,8.0,104.0,104.0,0.0
90,2,1.0,2.0,1.353,1.967,3,0.0,24,2,8.0,8.0,896.0,896.0,0.0
90,1,1.0,NAN,0.757,NAN,3,1.0,25,2,7.0,6.0,613.0,408.0,1.0
90,2,2.0,4.0,0.681,0.468,3,1.0,26,2,8.0,8.0,134.0,134.0,0.0
90,2,2.0,2.0,0.468,2.653,3,1.0,27,2,8.0,8.0,175.0,175.0,0.0
90,2,NAN,2.0,NAN,1.294,3,NAN,28,2,8.0,8.0,455.0,455.0,0.0
90,1,1.0,3.0,0.488,2.723,3,1.0,29,2,7.0,7.0,126.0,126.0,1.0
90,1,2.0,2.0,1.953,1.139,3,0.0,30,2,9.0,9.0,707.0,889.0,1.0
90,2,2.0,2.0,1.231,1.297,3,1.0,31,2,8.0,8.0,3412.0,3412.0,0.0
90,2,2.0,3.0,0.556,1.829,3,1.0,32,2,8.0,8.0,594.0,594.0,0.0
91,1,1.0,4.0,1.079,1.143,3,1.0,18,2,8.0,7.0,1124.0,100.0,2.0
91,1,2.0,3.0,1.234,2.512,3,0.0,19,2,8.0,8.0,248.0,100.0,2.0
91,2,1.0,2.0,1.891,2.381,3,0.0,20,2,8.0,8.0,896.0,896.0,0.0
91,1,1.0,4.0,0.354,1.601,3,1.0,21,2,9.0,9.0,707.0,889.0,1.0
91,2,2.0,3.0,0.513,2.306,3,1.0,22,2,8.0,8.0,857.0,857.0,0.0
91,1,1.0,4.0,0.81,1.512,3,1.0,23,2,7.0,6.0,613.0,408.0,1.0
91,1,NAN,1.0,NAN,2.505,3,NAN,24,2,9.0,10.0,653.0,6216.0,2.0
91,2,2.0,4.0,0.707,0.507,3,1.0,25,2,8.0,8.0,455.0,455.0,0.0
91,2,2.0,4.0,0.431,1.677,3,1.0,26,2,8.0,8.0,104.0,104.0,0.0
91,1,1.0,4.0,0.42,1.105,3,1.0,27,2,8.0,6.0,1026.0,345.0,2.0
91,2,1.0,3.0,1.322,1.557,3,0.0,28,2,8.0,8.0,594.0,594.0,0.0
91,2,1.0,2.0,1.09,2.755,3,0.0,29,2,8.0,8.0,175.0,175.0,0.0
91,1,1.0,4.0,0.586,1.31,3,1.0,30,2,7.0,7.0,126.0,126.0,1.0
91,2,2.0,3.0,0.704,1.521,3,1.0,31,2,8.0,8.0,3412.0,3412.0,0.0
91,2,1.0,2.0,0.668,2.273,3,0.0,32,2,8.0,8.0,134.0,134.0,0.0
92,2,2.0,2.0,0.823,2.691,3,1.0,18,2,8.0,8.0,896.0,896.0,0.0
92,2,2.0,3.0,1.0,2.075,3,1.0,19,2,8.0,8.0,3412.0,3412.0,0.0
92,1,1.0,NAN,1.198,NAN,3,1.0,20,2,7.0,6.0,613.0,408.0,1.0
92,2,2.0,2.0,0.85,1.413,3,1.0,21,2,8.0,8.0,455.0,455.0,0.0
92,1,1.0,2.0,1.093,1.508,3,1.0,22,2,9.0,9.0,707.0,889.0,1.0
92,1,1.0,3.0,1.04,1.893,3,1.0,23,2,8.0,7.0,1124.0,100.0,2.0
92,2,2.0,2.0,0.565,1.499,3,1.0,24,2,8.0,8.0,857.0,857.0,0.0
92,1,2.0,2.0,0.484,2.627,3,0.0,25,2,9.0,10.0,653.0,6216.0,2.0
92,2,2.0,2.0,1.704,0.951,3,1.0,26,2,8.0,8.0,594.0,594.0,0.0
92,1,1.0,4.0,0.66,1.765,3,1.0,27,2,8.0,6.0,1026.0,345.0,2.0
92,2,2.0,3.0,0.738,1.734,3,1.0,28,2,8.0,8.0,104.0,104.0,0.0
92,1,1.0,4.0,0.695,1.229,3,1.0,29,2,7.0,7.0,126.0,126.0,1.0
92,1,2.0,2.0,0.813,1.642,3,0.0,30,2,8.0,8.0,248.0,100.0,2.0
92,2,2.0,3.0,0.423,1.791,3,1.0,31,2,8.0,8.0,175.0,175.0,0.0
92,2,2.0,2.0,1.892,1.113,3,1.0,32,2,8.0,8.0,134.0,134.0,0.0
93,2,2.0,4.0,0.199,0.379,3,1.0,18,2,8.0,8.0,455.0,455.0,0.0
93,1,1.0,4.0,0.72,0.675,3,1.0,19,2,7.0,7.0,126.0,126.0,1.0
93,1,1.0,4.0,0.325,0.421,3,1.0,20,2,8.0,7.0,1124.0,100.0,2.0
93,2,2.0,4.0,0.565,1.076,3,1.0,21,2,8.0,8.0,3412.0,3412.0,0.0
93,2,2.0,4.0,0.863,1.161,3,1.0,22,2,8.0,8.0,134.0,134.0,0.0
93,1,1.0,4.0,0.433,0.712,3,1.0,23,2,7.0,6.0,613.0,408.0,1.0
93,2,2.0,4.0,0.523,0.557,3,1.0,24,2,8.0,8.0,175.0,175.0,0.0
93,1,1.0,4.0,0.232,0.807,3,1.0,25,2,9.0,10.0,653.0,6216.0,2.0
93,2,2.0,4.0,0.309,0.989,3,1.0,26,2,8.0,8.0,104.0,104.0,0.0
93,2,2.0,4.0,2.441,1.369,3,1.0,27,2,8.0,8.0,857.0,857.0,0.0
93,1,1.0,4.0,0.786,0.761,3,1.0,28,2,9.0,9.0,707.0,889.0,1.0
93,1,NAN,4.0,NAN,1.271,3,NAN,29,2,8.0,6.0,1026.0,345.0,2.0
93,2,1.0,4.0,0.25,1.474,3,0.0,30,2,8.0,8.0,896.0,896.0,0.0
93,1,1.0,4.0,0.684,0.402,3,1.0,31,2,8.0,8.0,248.0,100.0,2.0
93,2,2.0,4.0,1.189,1.422,3,1.0,32,2,8.0,8.0,594.0,594.0,0.0
94,2,2.0,NAN,1.136,NAN,3,1.0,18,2,8.0,8.0,857.0,857.0,0.0
94,1,1.0,4.0,1.079,1.426,3,1.0,19,2,7.0,7.0,126.0,126.0,1.0
94,2,2.0,3.0,1.474,1.436,3,1.0,20,2,8.0,8.0,134.0,134.0,0.0
94,2,2.0,NAN,1.639,NAN,3,1.0,21,2,8.0,8.0,594.0,594.0,0.0
94,1,1.0,4.0,1.04,1.777,3,1.0,22,2,8.0,7.0,1124.0,100.0,2.0
94,2,1.0,NAN,1.004,NAN,3,0.0,23,2,8.0,8.0,175.0,175.0,0.0
94,1,2.0,NAN,1.349,NAN,3,0.0,24,2,8.0,8.0,248.0,100.0,2.0
94,1,2.0,4.0,0.825,1.06,3,0.0,25,2,7.0,6.0,613.0,408.0,1.0
94,2,2.0,3.0,1.35,2.011,3,1.0,26,2,8.0,8.0,104.0,104.0,0.0
94,1,1.0,4.0,0.774,1.214,3,1.0,27,2,8.0,6.0,1026.0,345.0,2.0
94,1,2.0,4.0,0.584,1.317,3,0.0,28,2,9.0,10.0,653.0,6216.0,2.0
94,2,2.0,NAN,0.998,NAN,3,1.0,29,2,8.0,8.0,3412.0,3412.0,0.0
94,1,1.0,4.0,0.972,1.986,3,1.0,30,2,9.0,9.0,707.0,889.0,1.0
94,2,1.0,NAN,1.444,NAN,3,0.0,31,2,8.0,8.0,455.0,455.0,0.0
94,2,1.0,4.0,0.813,1.614,3,0.0,32,2,8.0,8.0,896.0,896.0,0.0
95,2,2.0,3.0,1.091,1.388,3,1.0,18,2,8.0,8.0,175.0,175.0,0.0
95,2,2.0,2.0,0.974,1.956,3,1.0,19,2,8.0,8.0,896.0,896.0,0.0
95,2,2.0,3.0,0.706,1.257,3,1.0,20,2,8.0,8.0,3412.0,3412.0,0.0
95,2,1.0,2.0,1.774,1.796,3,0.0,21,2,8.0,8.0,455.0,455.0,0.0
95,2,2.0,3.0,0.817,2.084,3,1.0,22,2,8.0,8.0,857.0,857.0,0.0
95,1,1.0,4.0,0.859,1.805,3,1.0,23,2,8.0,8.0,248.0,100.0,2.0
95,2,1.0,2.0,0.975,1.74,3,0.0,24,2,8.0,8.0,594.0,594.0,0.0
95,2,2.0,3.0,0.618,1.529,3,1.0,25,2,8.0,8.0,134.0,134.0,0.0
95,2,1.0,2.0,0.543,1.114,3,0.0,26,2,8.0,8.0,104.0,104.0,0.0
95,1,1.0,2.0,1.818,1.817,3,1.0,27,2,9.0,10.0,653.0,6216.0,2.0
95,1,1.0,4.0,0.429,1.616,3,1.0,28,2,7.0,6.0,613.0,408.0,1.0
95,1,1.0,2.0,0.659,1.898,3,1.0,29,2,9.0,9.0,707.0,889.0,1.0
95,1,1.0,3.0,0.62,2.78,3,1.0,30,2,8.0,6.0,1026.0,345.0,2.0
95,1,1.0,4.0,1.047,2.151,3,1.0,31,2,7.0,7.0,126.0,126.0,1.0
95,1,1.0,4.0,1.438,1.814,3,1.0,32,2,8.0,7.0,1124.0,100.0,2.0
96,1,1.0,4.0,1.726,2.277,3,1.0,18,2,8.0,8.0,248.0,100.0,2.0
96,2,2.0,2.0,0.704,1.359,3,1.0,19,2,8.0,8.0,175.0,175.0,0.0
96,2,2.0,2.0,0.444,1.723,3,1.0,20,2,8.0,8.0,134.0,134.0,0.0
96,1,1.0,4.0,1.11,2.122,3,1.0,21,2,7.0,7.0,126.0,126.0,1.0
96,1,1.0,4.0,1.656,1.768,3,1.0,22,2,8.0,7.0,1124.0,100.0,2.0
96,2,2.0,2.0,0.681,1.057,3,1.0,23,2,8.0,8.0,455.0,455.0,0.0
96,2,2.0,4.0,1.113,0.892,3,1.0,24,2,8.0,8.0,104.0,104.0,0.0
96,2,2.0,2.0,0.799,1.441,3,1.0,25,2,8.0,8.0,896.0,896.0,0.0
96,2,1.0,NAN,2.239,NAN,3,0.0,26,2,8.0,8.0,3412.0,3412.0,0.0
96,2,1.0,1.0,1.542,0.939,3,0.0,27,2,8.0,8.0,857.0,857.0,0.0
96,1,1.0,4.0,0.99,1.885,3,1.0,28,2,8.0,6.0,1026.0,345.0,2.0
96,1,1.0,1.0,0.715,1.685,3,1.0,29,2,9.0,9.0,707.0,889.0,1.0
96,2,2.0,4.0,1.932,1.403,3,1.0,30,2,8.0,8.0,594.0,594.0,0.0
96,1,1.0,3.0,1.021,1.661,3,1.0,31,2,9.0,10.0,653.0,6216.0,2.0
96,1,1.0,4.0,0.826,1.762,3,1.0,32,2,7.0,6.0,613.0,408.0,1.0
97,2,2.0,2.0,0.647,1.323,3,1.0,18,2,8.0,8.0,175.0,175.0,0.0
97,2,2.0,4.0,0.649,0.758,3,1.0,19,2,8.0,8.0,134.0,134.0,0.0
97,2,2.0,4.0,0.443,0.467,3,1.0,20,2,8.0,8.0,594.0,594.0,0.0
97,1,1.0,3.0,0.36,1.23,3,1.0,21,2,8.0,6.0,1026.0,345.0,2.0
97,2,2.0,2.0,0.444,1.468,3,1.0,22,2,8.0,8.0,896.0,896.0,0.0
97,2,2.0,4.0,0.528,0.772,3,1.0,23,2,8.0,8.0,857.0,857.0,0.0
97,1,1.0,2.0,1.32,2.223,3,1.0,24,2,9.0,9.0,707.0,889.0,1.0
97,2,2.0,4.0,0.319,0.362,3,1.0,25,2,8.0,8.0,455.0,455.0,0.0
97,2,2.0,4.0,0.33,0.59,3,1.0,26,2,8.0,8.0,104.0,104.0,0.0
97,1,1.0,1.0,0.795,1.812,3,1.0,27,2,8.0,8.0,248.0,100.0,2.0
97,1,1.0,4.0,0.329,0.938,3,1.0,28,2,8.0,7.0,1124.0,100.0,2.0
97,1,1.0,4.0,0.37,0.655,3,1.0,29,2,7.0,6.0,613.0,408.0,1.0
97,1,1.0,4.0,0.25,0.804,3,1.0,30,2,7.0,7.0,126.0,126.0,1.0
97,2,2.0,2.0,0.723,2.07,3,1.0,31,2,8.0,8.0,3412.0,3412.0,0.0
97,1,1.0,1.0,1.628,1.046,3,1.0,32,2,9.0,10.0,653.0,6216.0,2.0
