Subj_idx,Stimulus,Response,Confidence,RT_dec,Accuracy,nbrA,CA,IA,prmt,mt,Apmt,EMGtrial,force,EMG,Gender,age,RT_conf,Block,Trial
1,1,1.0,1,0.775878906,1.0,NAN,NAN,NAN,NAN,NAN,NAN,NAN,NAN,0,F,20,NAN,6,1
1,2,1.0,1,0.509765625,0.0,NAN,NAN,NAN,NAN,NAN,NAN,NAN,NAN,0,F,20,NAN,6,2
1,2,2.0,2,0.549804688,1.0,NAN,NAN,NAN,NAN,NAN,NAN,NAN,NAN,0,F,20,NAN,6,3
1,1,1.0,2,0.641113281,1.0,NAN,NAN,NAN,NAN,NAN,NAN,NAN,NAN,0,F,20,NAN,6,4
1,1,1.0,2,0.503417969,1.0,NAN,NAN,NAN,NAN,NAN,NAN,NAN,NAN,0,F,20,NAN,6,5
1,1,1.0,1,0.646484375,1.0,NAN,NAN,NAN,NAN,NAN,NAN,NAN,NAN,0,F,20,NAN,6,6
1,1,1.0,1,0.930175781,1.0,NAN,NAN,NAN,NAN,NAN,NAN,NAN,NAN,0,F,20,NAN,6,7
1,2,1.0,1,1.070800781,0.0,NAN,NAN,NAN,NAN,NAN,NAN,NAN,NAN,0,F,20,NAN,6,8
1,1,1.0,1,0.580078125,1.0,NAN,NAN,NAN,NAN,NAN,NAN,NAN,NAN,0,F,20,NAN,6,9
1,2,2.0,2,0.659667969,1.0,1.0,1.0,0.0,548.3398438,111.328125,0.548339844,C,1.170980247,1,F,20,NAN,6,10
1,1,1.0,1,0.556152344,1.0,1.0,1.0,0.0,383.7890625,172.3632813,0.383789063,C,0.920880437,1,F,20,NAN,6,11
1,1,2.0,1,0.902832031,0.0,2.0,1.0,1.0,749.5117188,153.3203125,0.685058594,C I,1.142655252,1,F,20,NAN,6,12
1,1,1.0,1,0.774414063,1.0,1.0,1.0,0.0,632.8125,141.6015625,0.6328125,C,0.949967932,1,F,20,NAN,6,13
1,1,1.0,1,0.782714844,1.0,1.0,1.0,0.0,543.4570313,239.2578125,0.543457031,C,0.883742944,1,F,20,NAN,6,14
1,2,2.0,3,0.491699219,1.0,1.0,1.0,0.0,331.5429688,160.15625,0.331542969,C,1.293067725,1,F,20,NAN,6,15
1,2,2.0,3,0.587402344,1.0,1.0,1.0,0.0,445.8007813,141.6015625,0.445800781,C,1.016742774,1,F,20,NAN,6,16
1,1,1.0,2,0.6328125,1.0,1.0,1.0,0.0,424.3164063,208.4960938,0.424316406,C,0.859355448,1,F,20,NAN,6,17
1,1,1.0,2,1.003417969,1.0,2.0,2.0,0.0,884.765625,118.6523438,0.525390625,C C,1.155155395,1,F,20,NAN,6,18
1,1,1.0,2,1.188964844,1.0,3.0,3.0,0.0,890.625,298.3398438,0.429199219,C C C,1.029017918,1,F,20,NAN,6,19
1,2,2.0,3,0.46484375,1.0,NAN,NAN,NAN,NAN,NAN,NAN,NAN,NAN,0,F,20,NAN,6,20
1,1,1.0,2,0.693847656,1.0,NAN,NAN,NAN,NAN,NAN,NAN,NAN,NAN,0,F,20,NAN,6,21
1,2,2.0,4,0.418945313,1.0,NAN,NAN,NAN,NAN,NAN,NAN,NAN,NAN,0,F,20,NAN,6,22
1,2,2.0,4,0.431640625,1.0,NAN,NAN,NAN,NAN,NAN,NAN,NAN,NAN,0,F,20,NAN,6,23
1,1,1.0,1,0.889160156,1.0,NAN,NAN,NAN,NAN,NAN,NAN,NAN,NAN,0,F,20,NAN,6,24
1,1,1.0,1,1.107910156,1.0,NAN,NAN,NAN,NAN,NAN,NAN,NAN,NAN,0,F,20,NAN,6,25
1,1,1.0,1,0.910644531,1.0,2.0,2.0,0.0,643.5546875,267.0898438,0.360839844,C C,1.063892912,1,F,20,NAN,6,26
1,1,1.0,2,0.769042969,1.0,NAN,NAN,NAN,NAN,NAN,NAN,NAN,NAN,0,F,20,NAN,6,27
1,2,1.0,2,0.76171875,0.0,NAN,NAN,NAN,NAN,NAN,NAN,NAN,NAN,0,F,20,NAN,6,28
1,1,2.0,1,0.833007813,0.0,NAN,NAN,NAN,NAN,NAN,NAN,NAN,NAN,0,F,20,NAN,6,29
1,2,2.0,3,0.495605469,1.0,NAN,NAN,NAN,NAN,NAN,NAN,NAN,NAN,0,F,20,NAN,6,30
1,2,2.0,4,0.481933594,1.0,NAN,NAN,NAN,NAN,NAN,NAN,NAN,NAN,0,F,20,NAN,6,31
1,2,2.0,4,0.478515625,1.0,NAN,NAN,NAN,NAN,NAN,NAN,NAN,NAN,0,F,20,NAN,6,32
1,2,1.0,2,0.606445313,0.0,NAN,NAN,NAN,NAN,NAN,NAN,NAN,NAN,0,F,20,NAN,6,33
1,1,2.0,3,0.676269531,0.0,NAN,NAN,NAN,NAN,NAN,NAN,NAN,NAN,0,F,20,NAN,6,34
1,2,2.0,4,0.476074219,1.0,NAN,NAN,NAN,NAN,NAN,NAN,NAN,NAN,0,F,20,NAN,6,35
1,1,2.0,2,0.867675781,0.0,NAN,NAN,NAN,NAN,NAN,NAN,NAN,NAN,0,F,20,NAN,6,36
1,1,1.0,1,0.458984375,1.0,NAN,NAN,NAN,NAN,NAN,NAN,NAN,NAN,0,F,20,NAN,6,37
1,2,1.0,2,0.989257813,0.0,NAN,NAN,NAN,NAN,NAN,NAN,NAN,NAN,0,F,20,NAN,6,38
1,1,1.0,2,0.646972656,1.0,NAN,NAN,NAN,NAN,NAN,NAN,NAN,NAN,0,F,20,NAN,6,39
1,1,1.0,2,0.637207031,1.0,1.0,1.0,0.0,449.21875,187.9882813,0.44921875,C,0.945742933,1,F,20,NAN,6,40
1,2,2.0,1,0.706054688,1.0,NAN,NAN,NAN,NAN,NAN,NAN,NAN,NAN,0,F,20,NAN,6,41
1,2,2.0,3,0.5546875,1.0,NAN,NAN,NAN,NAN,NAN,NAN,NAN,NAN,0,F,20,NAN,6,42
1,1,2.0,1,0.694335938,0.0,NAN,NAN,NAN,NAN,NAN,NAN,NAN,NAN,0,F,20,NAN,6,43
1,1,1.0,2,1.08203125,1.0,NAN,NAN,NAN,NAN,NAN,NAN,NAN,NAN,0,F,20,NAN,6,44
1,1,1.0,1,0.520996094,1.0,1.0,1.0,0.0,330.5664063,190.4296875,0.330566406,C,1.068530411,1,F,20,NAN,6,45
1,2,1.0,1,0.733398438,0.0,1.0,0.0,1.0,531.7382813,201.6601563,0.531738281,I,0.983992926,1,F,20,NAN,6,46
1,2,2.0,4,0.540527344,1.0,NAN,NAN,NAN,NAN,NAN,NAN,NAN,NAN,0,F,20,NAN,6,47
1,2,2.0,4,0.495117188,1.0,NAN,NAN,NAN,NAN,NAN,NAN,NAN,NAN,0,F,20,NAN,6,48
1,1,1.0,1,0.866210938,1.0,1.0,1.0,0.0,603.0273438,263.1835938,0.603027344,C,1.001005423,1,F,20,NAN,6,49
1,2,2.0,2,0.591308594,1.0,NAN,NAN,NAN,NAN,NAN,NAN,NAN,NAN,0,F,20,NAN,6,50
1,2,2.0,4,0.517578125,1.0,NAN,NAN,NAN,NAN,NAN,NAN,NAN,NAN,0,F,20,NAN,6,51
1,2,2.0,4,0.597167969,1.0,NAN,NAN,NAN,NAN,NAN,NAN,NAN,NAN,0,F,20,NAN,6,52
1,1,1.0,1,0.690429688,1.0,NAN,NAN,NAN,NAN,NAN,NAN,NAN,NAN,0,F,20,NAN,6,53
1,2,1.0,1,1.16015625,0.0,1.0,0.0,1.0,364.2578125,795.8984375,0.364257813,I,0.84883045,1,F,20,NAN,6,54
1,2,2.0,4,0.499511719,1.0,2.0,1.0,1.0,368.6523438,130.859375,0.247558594,I C,1.126080255,1,F,20,NAN,6,55
1,1,2.0,1,0.7734375,0.0,NAN,NAN,NAN,NAN,NAN,NAN,NAN,NAN,0,F,20,NAN,6,56
1,1,1.0,1,0.848632813,1.0,1.0,1.0,0.0,664.0625,184.5703125,0.6640625,C,0.979267927,1,F,20,NAN,6,57
1,1,1.0,1,0.885742188,1.0,1.0,1.0,0.0,727.0507813,158.6914063,0.727050781,C,0.872980446,1,F,20,NAN,6,58
1,1,1.0,2,0.749511719,1.0,1.0,1.0,0.0,593.2617188,156.25,0.593261719,C,0.989442925,1,F,20,NAN,6,59
1,2,2.0,1,0.642089844,1.0,1.0,1.0,0.0,497.5585938,144.53125,0.497558594,C,0.904355294,1,F,20,NAN,6,60
1,2,2.0,2,0.607910156,1.0,2.0,1.0,1.0,479.4921875,128.4179688,0.204589844,I C,1.190080243,1,F,20,NAN,6,61
1,1,1.0,1,0.615234375,1.0,1.0,1.0,0.0,389.1601563,226.0742188,0.389160156,C,0.932042935,1,F,20,NAN,6,62
1,1,1.0,1,0.8671875,1.0,2.0,2.0,0.0,759.765625,107.421875,0.367675781,C C,1.118042902,1,F,20,NAN,6,63
1,2,2.0,3,0.543945313,1.0,1.0,1.0,0.0,367.1875,176.7578125,0.3671875,C,1.015905274,1,F,20,NAN,6,64
1,2,2.0,3,0.494628906,1.0,1.0,1.0,0.0,402.34375,92.28515625,0.40234375,C,1.103717759,1,F,20,NAN,6,65
1,2,1.0,1,0.61328125,0.0,3.0,0.0,3.0,476.0742188,137.2070313,0.245117188,I I I,1.152542896,1,F,20,NAN,6,66
1,1,1.0,1,0.454589844,1.0,1.0,1.0,0.0,301.7578125,152.8320313,0.301757813,C,0.977867927,1,F,20,NAN,6,67
1,2,2.0,2,0.545410156,1.0,1.0,1.0,0.0,353.515625,191.8945313,0.353515625,C,0.887055297,1,F,20,NAN,6,68
1,2,2.0,1,0.63671875,1.0,3.0,1.0,2.0,503.90625,132.8125,0.383789063,I I C,1.203305241,1,F,20,NAN,6,69
1,2,2.0,3,0.474121094,1.0,1.0,1.0,0.0,373.046875,101.0742188,0.373046875,C,1.238767735,1,F,20,NAN,6,70
1,2,2.0,1,0.671875,1.0,1.0,1.0,0.0,542.4804688,129.3945313,0.542480469,C,1.381142709,1,F,20,NAN,7,1
1,2,1.0,1,0.630859375,0.0,1.0,0.0,1.0,526.3671875,104.4921875,0.526367188,I,0.947680432,1,F,20,NAN,7,2
1,2,2.0,2,0.464355469,1.0,1.0,1.0,0.0,320.3125,144.0429688,0.3203125,C,1.415942703,1,F,20,NAN,7,3
1,2,2.0,3,0.486328125,1.0,1.0,1.0,0.0,341.796875,144.53125,0.341796875,C,1.590105172,1,F,20,NAN,7,4
1,2,2.0,3,0.478515625,1.0,1.0,1.0,0.0,346.6796875,131.8359375,0.346679688,C,1.234717735,1,F,20,NAN,7,5
1,1,1.0,3,0.701660156,1.0,1.0,1.0,0.0,541.015625,160.6445313,0.541015625,C,0.896692941,1,F,20,NAN,7,6
1,1,1.0,3,0.483886719,1.0,1.0,1.0,0.0,311.5234375,172.3632813,0.311523438,C,1.021817919,1,F,20,NAN,7,7
1,2,2.0,3,0.528808594,1.0,1.0,1.0,0.0,387.6953125,141.1132813,0.387695313,C,0.990355279,1,F,20,NAN,7,8
1,1,1.0,2,0.634277344,1.0,1.0,1.0,0.0,463.8671875,170.4101563,0.463867188,C,0.913880438,1,F,20,NAN,7,9
1,2,1.0,2,0.565917969,0.0,1.0,0.0,1.0,414.5507813,151.3671875,0.414550781,I,0.887992943,1,F,20,NAN,7,10
1,1,1.0,1,0.859863281,1.0,2.0,2.0,0.0,746.09375,113.7695313,0.402832031,C C,1.322017865,1,F,20,NAN,7,11
1,2,1.0,1,0.824707031,0.0,1.0,0.0,1.0,554.6875,270.0195313,0.5546875,I,0.892942942,1,F,20,NAN,7,12
1,2,NAN,0,NAN,NAN,NAN,NAN,NAN,NAN,NAN,NAN,NAN,NAN,0,F,20,NAN,7,13
1,1,2.0,0,0.5546875,0.0,2.0,1.0,1.0,457.5195313,97.16796875,0.318847656,C I,1.111317757,1,F,20,NAN,7,14
1,1,1.0,1,0.443847656,1.0,1.0,1.0,0.0,184.5703125,259.2773438,0.184570313,C,1.056980413,1,F,20,NAN,7,15
1,1,1.0,3,0.520996094,1.0,1.0,1.0,0.0,349.609375,171.3867188,0.349609375,C,0.973805428,1,F,20,NAN,7,16
1,1,1.0,2,0.530273438,1.0,1.0,1.0,0.0,311.5234375,218.75,0.311523438,C,0.941292933,1,F,20,NAN,7,17
1,1,1.0,2,0.610839844,1.0,1.0,1.0,0.0,387.6953125,223.1445313,0.387695313,C,0.968842929,1,F,20,NAN,7,18
1,1,2.0,1,0.5546875,0.0,1.0,0.0,1.0,384.765625,169.921875,0.384765625,I,1.114167757,1,F,20,NAN,7,19
1,1,2.0,1,0.810058594,0.0,1.0,0.0,1.0,641.1132813,168.9453125,0.641113281,I,1.003330277,1,F,20,NAN,7,20
1,2,1.0,1,0.487304688,0.0,1.0,0.0,1.0,298.828125,188.4765625,0.298828125,I,0.90558044,1,F,20,NAN,7,21
1,1,1.0,1,0.900390625,1.0,2.0,2.0,0.0,792.4804688,107.9101563,0.501953125,C C,1.151230396,1,F,20,NAN,7,22
1,2,1.0,0,0.811035156,0.0,1.0,0.0,1.0,660.6445313,150.390625,0.660644531,I,1.082442908,1,F,20,NAN,7,23
1,2,2.0,3,0.547363281,1.0,1.0,1.0,0.0,440.9179688,106.4453125,0.440917969,C,1.127092755,1,F,20,NAN,7,24
1,2,2.0,4,0.481933594,1.0,1.0,1.0,0.0,350.0976563,131.8359375,0.350097656,C,1.139992752,1,F,20,NAN,7,25
1,2,2.0,4,0.58203125,1.0,1.0,1.0,0.0,463.3789063,118.6523438,0.463378906,C,1.105480258,1,F,20,NAN,7,26
1,1,1.0,3,0.586914063,1.0,1.0,1.0,0.0,406.7382813,180.1757813,0.406738281,C,1.053455413,1,F,20,NAN,7,27
1,1,1.0,2,0.545898438,1.0,1.0,1.0,0.0,385.7421875,160.15625,0.385742188,C,1.022280419,1,F,20,NAN,7,28
1,2,1.0,2,0.581054688,0.0,1.0,0.0,1.0,333.0078125,248.046875,0.333007813,I,1.034480417,1,F,20,NAN,7,29
1,2,2.0,3,0.590332031,1.0,1.0,1.0,0.0,420.4101563,169.921875,0.420410156,C,0.968342783,1,F,20,NAN,7,30
1,1,1.0,1,0.649902344,1.0,1.0,1.0,0.0,344.2382813,305.6640625,0.344238281,C,1.164430394,1,F,20,NAN,7,31
1,1,1.0,1,0.4375,1.0,1.0,1.0,0.0,319.3359375,118.1640625,0.319335938,C,1.003142922,1,F,20,NAN,7,32
1,2,1.0,1,0.938964844,0.0,2.0,0.0,2.0,794.921875,144.0429688,0.449707031,I I,0.967642929,1,F,20,NAN,7,33
1,1,2.0,2,0.556640625,0.0,1.0,0.0,1.0,451.6601563,104.9804688,0.451660156,I,1.068280265,1,F,20,NAN,7,34
1,2,1.0,1,1.264160156,0.0,3.0,0.0,3.0,1095.214844,168.9453125,0.324707031,I I I,0.985542926,1,F,20,NAN,7,35
1,1,1.0,2,0.466796875,1.0,2.0,2.0,0.0,286.1328125,180.6640625,0.046386719,C C,1.036117917,1,F,20,NAN,7,36
1,2,2.0,1,0.579101563,1.0,2.0,1.0,1.0,430.6640625,148.4375,0.3359375,I C,1.019255274,1,F,20,NAN,7,37
1,2,1.0,1,0.717773438,0.0,3.0,0.0,3.0,518.0664063,199.7070313,0.319824219,I I I,0.935242935,1,F,20,NAN,7,38
1,1,1.0,1,0.727050781,1.0,3.0,3.0,0.0,622.5585938,104.4921875,0.465332031,C C C,0.990855425,1,F,20,NAN,7,39
1,2,2.0,3,0.610351563,1.0,1.0,1.0,0.0,486.8164063,123.5351563,0.486816406,C,1.022305273,1,F,20,NAN,7,40
1,1,2.0,2,0.599609375,0.0,1.0,0.0,1.0,476.0742188,123.5351563,0.476074219,I,1.068305265,1,F,20,NAN,7,41
1,2,1.0,1,0.686523438,0.0,1.0,0.0,1.0,559.5703125,126.953125,0.559570313,I,1.052730414,1,F,20,NAN,7,42
1,1,1.0,1,0.574707031,1.0,1.0,1.0,0.0,372.0703125,202.6367188,0.372070313,C,1.048417914,1,F,20,NAN,7,43
1,2,2.0,3,0.506347656,1.0,1.0,1.0,0.0,384.2773438,122.0703125,0.384277344,C,1.269405229,1,F,20,NAN,7,44
1,2,2.0,3,0.524902344,1.0,1.0,1.0,0.0,416.9921875,107.9101563,0.416992188,C,1.191030243,1,F,20,NAN,7,45
1,1,1.0,3,0.480957031,1.0,1.0,1.0,0.0,284.1796875,196.7773438,0.284179688,C,1.090192907,1,F,20,NAN,7,46
1,2,1.0,1,0.776855469,0.0,1.0,0.0,1.0,634.2773438,142.578125,0.634277344,I,0.941567933,1,F,20,NAN,7,47
1,1,2.0,2,0.588378906,0.0,1.0,0.0,1.0,474.609375,113.7695313,0.474609375,I,1.143380252,1,F,20,NAN,7,48
1,2,2.0,3,0.556152344,1.0,1.0,1.0,0.0,427.2460938,128.90625,0.427246094,C,1.135817753,1,F,20,NAN,7,49
1,2,2.0,3,0.576171875,1.0,1.0,1.0,0.0,423.3398438,152.8320313,0.423339844,C,1.15299275,1,F,20,NAN,7,50
1,1,1.0,2,0.5859375,1.0,1.0,1.0,0.0,399.4140625,186.5234375,0.399414063,C,0.954005431,1,F,20,NAN,7,51
1,2,2.0,3,0.623535156,1.0,1.0,1.0,0.0,533.203125,90.33203125,0.533203125,C,1.259142731,1,F,20,NAN,7,52
1,2,2.0,3,0.54296875,1.0,2.0,1.0,1.0,372.0703125,170.8984375,0.340820313,I C,1.156105249,1,F,20,NAN,7,53
1,1,1.0,0,0.604980469,1.0,2.0,2.0,0.0,462.890625,142.0898438,0.314453125,C C,1.011055421,1,F,20,NAN,7,54
1,2,2.0,3,0.688964844,1.0,2.0,1.0,1.0,545.8984375,143.0664063,0.501464844,I C,0.882792798,1,F,20,NAN,7,55
1,1,1.0,2,0.53515625,1.0,1.0,1.0,0.0,382.8125,152.34375,0.3828125,C,1.045342915,1,F,20,NAN,7,56
1,2,2.0,3,0.888183594,1.0,2.0,2.0,0.0,822.7539063,65.4296875,0.407226563,C C,1.719842649,1,F,20,NAN,7,57
1,1,1.0,3,0.735839844,1.0,2.0,2.0,0.0,504.3945313,231.4453125,0.39453125,C C,0.952755431,1,F,20,NAN,7,58
1,1,1.0,2,0.670898438,1.0,3.0,3.0,0.0,529.296875,141.6015625,0.345214844,C C C,0.994655424,1,F,20,NAN,7,59
1,2,1.0,1,0.656738281,0.0,1.0,0.0,1.0,416.9921875,239.7460938,0.416992188,I,1.076305409,1,F,20,NAN,7,60
1,1,1.0,1,0.556152344,1.0,1.0,1.0,0.0,388.671875,167.4804688,0.388671875,C,1.047655414,1,F,20,NAN,7,61
1,2,2.0,1,0.504882813,1.0,1.0,1.0,0.0,394.53125,110.3515625,0.39453125,C,1.215080239,1,F,20,NAN,7,62
1,1,1.0,1,0.665527344,1.0,1.0,1.0,0.0,516.6015625,148.9257813,0.516601563,C,0.950717932,1,F,20,NAN,7,63
1,2,2.0,2,0.607421875,1.0,1.0,1.0,0.0,470.703125,136.71875,0.470703125,C,0.98283028,1,F,20,NAN,7,64
1,2,2.0,3,0.575195313,1.0,1.0,1.0,0.0,455.5664063,119.6289063,0.455566406,C,1.164655248,1,F,20,NAN,7,65
1,1,2.0,0,0.752441406,0.0,3.0,2.0,1.0,643.5546875,108.8867188,0.385253906,C C I,0.975167782,1,F,20,NAN,7,66
1,2,1.0,2,0.534179688,0.0,2.0,0.0,2.0,434.0820313,100.0976563,0.3828125,I I,1.215242884,1,F,20,NAN,7,67
1,1,1.0,1,0.538085938,1.0,1.0,1.0,0.0,386.71875,151.3671875,0.38671875,C,1.077442909,1,F,20,NAN,7,68
1,1,1.0,3,0.497070313,1.0,1.0,1.0,0.0,337.890625,159.1796875,0.337890625,C,1.18515539,1,F,20,NAN,7,69
1,2,2.0,4,0.553710938,1.0,1.0,1.0,0.0,444.3359375,109.375,0.444335938,C,1.533030182,1,F,20,NAN,7,70
1,1,1.0,1,0.813964844,1.0,1.0,1.0,0.0,659.6679688,154.296875,0.659667969,C,1.005517922,1,F,20,NAN,8,1
1,2,2.0,3,0.62109375,1.0,1.0,1.0,0.0,508.3007813,112.7929688,0.508300781,C,1.216855238,1,F,20,NAN,8,2
1,1,1.0,2,0.520996094,1.0,1.0,1.0,0.0,369.140625,151.8554688,0.369140625,C,1.013355421,1,F,20,NAN,8,3
1,2,1.0,2,0.42578125,0.0,1.0,0.0,1.0,285.6445313,140.1367188,0.285644531,I,1.052367914,1,F,20,NAN,8,4
1,2,1.0,0,0.655761719,0.0,1.0,0.0,1.0,518.0664063,137.6953125,0.518066406,I,0.954517931,1,F,20,NAN,8,5
1,1,1.0,2,0.565429688,1.0,1.0,1.0,0.0,433.1054688,132.3242188,0.433105469,C,0.936405434,1,F,20,NAN,8,6
1,1,2.0,1,0.529296875,0.0,1.0,0.0,1.0,332.5195313,196.7773438,0.332519531,I,1.03799277,1,F,20,NAN,8,7
1,2,2.0,1,0.592773438,1.0,3.0,1.0,2.0,411.1328125,181.640625,0.2578125,I I C,1.091017761,1,F,20,NAN,8,8
1,1,1.0,1,0.637695313,1.0,3.0,3.0,0.0,515.625,122.0703125,0.224121094,C C C,1.042730415,1,F,20,NAN,8,9
1,2,1.0,1,0.53515625,0.0,1.0,0.0,1.0,374.0234375,161.1328125,0.374023438,I,0.975517927,1,F,20,NAN,8,10
1,2,2.0,3,0.516113281,1.0,1.0,1.0,0.0,406.7382813,109.375,0.406738281,C,1.651067661,1,F,20,NAN,8,11
1,1,1.0,1,0.653320313,1.0,2.0,2.0,0.0,530.7617188,122.5585938,0.438476563,C C,1.040130416,1,F,20,NAN,8,12
1,2,2.0,2,0.901855469,1.0,2.0,1.0,1.0,761.71875,140.1367188,0.41015625,I C,1.359530213,1,F,20,NAN,8,13
1,1,1.0,1,1.032714844,1.0,2.0,2.0,0.0,941.40625,91.30859375,0.608398438,C C,1.175117892,1,F,20,NAN,8,14
1,1,1.0,1,0.671386719,1.0,1.0,1.0,0.0,513.1835938,158.203125,0.513183594,C,1.051205414,1,F,20,NAN,8,15
1,2,2.0,2,0.598144531,1.0,1.0,1.0,0.0,466.3085938,131.8359375,0.466308594,C,1.054417768,1,F,20,NAN,8,16
1,2,2.0,2,1.036621094,1.0,2.0,2.0,0.0,927.2460938,109.375,0.53515625,C C,1.213992739,1,F,20,NAN,8,17
1,1,1.0,1,0.662597656,1.0,1.0,1.0,0.0,487.3046875,175.2929688,0.487304688,C,0.843767951,1,F,20,NAN,8,18
1,2,2.0,2,0.892089844,1.0,2.0,2.0,0.0,803.2226563,88.8671875,0.478515625,C C,1.462717695,1,F,20,NAN,8,19
1,1,1.0,2,0.565917969,1.0,1.0,1.0,0.0,420.8984375,145.0195313,0.420898438,C,1.021005419,1,F,20,NAN,8,20
1,2,2.0,1,0.646972656,1.0,1.0,1.0,0.0,533.6914063,113.28125,0.533691406,C,1.021105273,1,F,20,NAN,8,21
1,2,2.0,2,0.87890625,1.0,4.0,2.0,2.0,801.7578125,77.1484375,0.310546875,I I C C,1.134092753,1,F,20,NAN,8,22
1,2,2.0,1,0.676757813,1.0,1.0,1.0,0.0,548.3398438,128.4179688,0.548339844,C,1.071767764,1,F,20,NAN,8,23
1,2,1.0,1,0.485351563,0.0,3.0,0.0,3.0,360.8398438,124.5117188,0.174316406,I I I,1.029592918,1,F,20,NAN,8,24
1,2,1.0,1,1.104980469,0.0,2.0,0.0,2.0,971.6796875,133.3007813,0.579101563,I I,0.979967927,1,F,20,NAN,8,25
1,1,2.0,1,0.903320313,0.0,1.0,0.0,1.0,802.2460938,101.0742188,0.802246094,I,1.259730231,1,F,20,NAN,8,26
1,1,2.0,1,0.573730469,0.0,1.0,0.0,1.0,438.4765625,135.2539063,0.438476563,I,0.973980282,1,F,20,NAN,8,27
1,2,1.0,2,0.51171875,0.0,1.0,0.0,1.0,313.4765625,198.2421875,0.313476563,I,1.01613042,1,F,20,NAN,8,28
1,2,2.0,1,0.651855469,1.0,1.0,1.0,0.0,544.4335938,107.421875,0.544433594,C,1.145830251,1,F,20,NAN,8,29
1,1,2.0,1,0.70703125,0.0,1.0,0.0,1.0,585.4492188,121.5820313,0.585449219,I,1.143330252,1,F,20,NAN,8,30
1,2,1.0,2,0.717285156,0.0,1.0,0.0,1.0,584.4726563,132.8125,0.584472656,I,0.954255431,1,F,20,NAN,8,31
1,2,2.0,2,0.6484375,1.0,1.0,1.0,0.0,522.9492188,125.4882813,0.522949219,C,1.129180254,1,F,20,NAN,8,32
1,2,2.0,2,1.15234375,1.0,2.0,2.0,0.0,1074.21875,78.125,0.708007813,C C,1.603742669,1,F,20,NAN,8,33
1,1,1.0,2,0.814453125,1.0,3.0,2.0,1.0,660.6445313,153.8085938,0.221191406,C I C,1.18573039,1,F,20,NAN,8,34
1,2,1.0,1,0.729003906,0.0,1.0,0.0,1.0,598.6328125,130.3710938,0.598632813,I,1.088417907,1,F,20,NAN,8,35
1,1,1.0,1,0.627929688,1.0,1.0,1.0,0.0,462.4023438,165.5273438,0.462402344,C,0.947167932,1,F,20,NAN,8,36
1,1,1.0,1,0.637695313,1.0,1.0,1.0,0.0,519.0429688,118.6523438,0.519042969,C,1.047817914,1,F,20,NAN,8,37
1,1,1.0,1,0.816894531,1.0,2.0,2.0,0.0,619.140625,197.7539063,0.461425781,C C,0.853930449,1,F,20,NAN,8,38
1,2,2.0,2,0.747070313,1.0,1.0,1.0,0.0,598.1445313,148.9257813,0.598144531,C,0.964742784,1,F,20,NAN,8,39
1,2,1.0,1,0.902832031,0.0,1.0,0.0,1.0,726.0742188,176.7578125,0.726074219,I,0.90368044,1,F,20,NAN,8,40
1,2,2.0,3,0.767089844,1.0,2.0,1.0,1.0,640.625,126.4648438,0.513183594,I C,1.146430251,1,F,20,NAN,8,41
1,2,2.0,2,0.643066406,1.0,1.0,1.0,0.0,531.25,111.8164063,0.53125,C,1.26715523,1,F,20,NAN,8,42
1,1,1.0,1,0.564453125,1.0,3.0,3.0,0.0,406.25,158.203125,0.169921875,C C C,0.917230438,1,F,20,NAN,8,43
1,1,1.0,3,0.659667969,1.0,1.0,1.0,0.0,504.8828125,154.7851563,0.504882813,C,1.064780411,1,F,20,NAN,8,44
1,1,1.0,3,0.670898438,1.0,1.0,1.0,0.0,499.5117188,171.3867188,0.499511719,C,1.088267907,1,F,20,NAN,8,45
1,1,2.0,0,0.771972656,0.0,2.0,1.0,1.0,622.0703125,149.9023438,0.45703125,C I,1.031617772,1,F,20,NAN,8,46
1,1,1.0,3,0.477050781,1.0,2.0,2.0,0.0,308.1054688,168.9453125,0.0859375,C C,1.089305407,1,F,20,NAN,8,47
1,1,1.0,2,0.830566406,1.0,1.0,1.0,0.0,627.4414063,203.125,0.627441406,C,1.001405423,1,F,20,NAN,8,48
1,2,2.0,4,0.534179688,1.0,1.0,1.0,0.0,406.7382813,127.4414063,0.406738281,C,1.086955262,1,F,20,NAN,8,49
1,2,1.0,1,0.966796875,0.0,3.0,0.0,3.0,878.90625,87.890625,0.468261719,I I I,1.18720539,1,F,20,NAN,8,50
1,2,2.0,4,0.618164063,1.0,1.0,1.0,0.0,514.1601563,104.0039063,0.514160156,C,1.238605235,1,F,20,NAN,8,51
1,2,2.0,4,0.610839844,1.0,1.0,1.0,0.0,490.234375,120.6054688,0.490234375,C,1.112692757,1,F,20,NAN,8,52
1,2,2.0,2,0.747070313,1.0,1.0,1.0,0.0,622.5585938,124.5117188,0.622558594,C,1.03979277,1,F,20,NAN,8,53
1,1,1.0,1,0.711425781,1.0,1.0,1.0,0.0,532.7148438,178.7109375,0.532714844,C,0.973005428,1,F,20,NAN,8,54
1,2,2.0,3,0.717773438,1.0,2.0,1.0,1.0,607.421875,110.3515625,0.444335938,I C,1.080630263,1,F,20,NAN,8,55
1,2,2.0,3,0.614257813,1.0,1.0,1.0,0.0,478.515625,135.7421875,0.478515625,C,0.981392781,1,F,20,NAN,8,56
1,2,2.0,3,0.495117188,1.0,1.0,1.0,0.0,369.140625,125.9765625,0.369140625,C,0.944755287,1,F,20,NAN,8,57
1,2,1.0,0,0.594238281,0.0,1.0,0.0,1.0,417.4804688,176.7578125,0.417480469,I,0.873030446,1,F,20,NAN,8,58
1,1,1.0,1,0.701660156,1.0,1.0,1.0,0.0,550.78125,150.8789063,0.55078125,C,0.912367939,1,F,20,NAN,8,59
1,2,2.0,2,0.767089844,1.0,2.0,1.0,1.0,627.4414063,139.6484375,0.548828125,I C,0.903767794,1,F,20,NAN,8,60
1,1,1.0,1,0.730957031,1.0,1.0,1.0,0.0,478.0273438,252.9296875,0.478027344,C,0.855317949,1,F,20,NAN,8,61
1,2,2.0,3,0.494628906,1.0,1.0,1.0,0.0,371.5820313,123.046875,0.371582031,C,1.248292733,1,F,20,NAN,8,62
1,1,1.0,2,0.659179688,1.0,1.0,1.0,0.0,475.5859375,183.59375,0.475585938,C,0.944680433,1,F,20,NAN,8,63
1,1,1.0,1,0.645996094,1.0,1.0,1.0,0.0,466.3085938,179.6875,0.466308594,C,0.898992941,1,F,20,NAN,8,64
1,2,2.0,2,0.648925781,1.0,2.0,1.0,1.0,509.765625,139.1601563,0.308105469,I C,0.975517782,1,F,20,NAN,8,65
1,1,1.0,1,0.615234375,1.0,3.0,3.0,0.0,438.9648438,176.2695313,0.228027344,C C C,0.947955432,1,F,20,NAN,8,66
1,1,1.0,1,0.765625,1.0,1.0,1.0,0.0,620.1171875,145.5078125,0.620117188,C,0.870580446,1,F,20,NAN,8,67
1,1,1.0,1,0.638671875,1.0,1.0,1.0,0.0,467.7734375,170.8984375,0.467773438,C,0.925780436,1,F,20,NAN,8,68
1,1,1.0,2,0.540039063,1.0,1.0,1.0,0.0,305.6640625,234.375,0.305664063,C,1.150380396,1,F,20,NAN,8,69
1,1,1.0,1,0.711914063,1.0,1.0,1.0,0.0,460.4492188,251.4648438,0.460449219,C,1.013117921,1,F,20,NAN,8,70
1,2,2.0,3,0.858886719,1.0,1.0,1.0,0.0,743.1640625,115.7226563,0.743164063,C,1.269117729,1,F,20,NAN,9,1
1,2,2.0,4,0.555175781,1.0,1.0,1.0,0.0,402.8320313,152.34375,0.402832031,C,1.344042716,1,F,20,NAN,9,2
1,2,2.0,4,0.526855469,1.0,2.0,1.0,1.0,390.625,136.2304688,0.274414063,I C,0.991592779,1,F,20,NAN,9,3
1,1,1.0,0,0.653808594,1.0,1.0,1.0,0.0,402.8320313,250.9765625,0.402832031,C,0.861692948,1,F,20,NAN,9,4
1,2,1.0,2,0.546875,0.0,1.0,0.0,1.0,410.15625,136.71875,0.41015625,I,1.048992914,1,F,20,NAN,9,5
1,2,2.0,3,0.724609375,1.0,1.0,1.0,0.0,582.5195313,142.0898438,0.582519531,C,1.180742745,1,F,20,NAN,9,6
1,2,2.0,3,0.619140625,1.0,1.0,1.0,0.0,469.7265625,149.4140625,0.469726563,C,1.046505269,1,F,20,NAN,9,7
1,2,1.0,3,0.638671875,0.0,1.0,0.0,1.0,414.0625,224.609375,0.4140625,I,0.974605428,1,F,20,NAN,9,8
1,2,1.0,1,0.868164063,0.0,1.0,0.0,1.0,693.359375,174.8046875,0.693359375,I,0.877630445,1,F,20,NAN,9,9
1,1,2.0,4,0.779296875,0.0,1.0,0.0,1.0,630.859375,148.4375,0.630859375,I,0.917455292,1,F,20,NAN,9,10
1,1,1.0,4,0.736816406,1.0,1.0,1.0,0.0,555.1757813,181.640625,0.555175781,C,0.870130446,1,F,20,NAN,9,11
1,1,1.0,2,0.996582031,1.0,2.0,2.0,0.0,870.6054688,125.9765625,0.500976563,C C,1.001867923,1,F,20,NAN,9,12
1,1,1.0,3,0.659667969,1.0,1.0,1.0,0.0,540.0390625,119.6289063,0.540039063,C,1.209180386,1,F,20,NAN,9,13
1,1,1.0,2,0.926757813,1.0,2.0,2.0,0.0,804.6875,122.0703125,0.4375,C C,1.058342913,1,F,20,NAN,9,14
1,2,2.0,4,0.53125,1.0,1.0,1.0,0.0,395.9960938,135.2539063,0.395996094,C,1.355067714,1,F,20,NAN,9,15
1,1,1.0,1,0.760742188,1.0,3.0,3.0,0.0,620.6054688,140.1367188,0.358398438,C C C,1.043092915,1,F,20,NAN,9,16
1,2,2.0,4,0.556640625,1.0,1.0,1.0,0.0,429.6875,126.953125,0.4296875,C,1.222730237,1,F,20,NAN,9,17
1,2,2.0,4,0.544433594,1.0,1.0,1.0,0.0,421.3867188,123.046875,0.421386719,C,1.112392757,1,F,20,NAN,9,18
1,2,2.0,4,0.513183594,1.0,1.0,1.0,0.0,385.2539063,127.9296875,0.385253906,C,1.123617755,1,F,20,NAN,9,19
1,1,1.0,1,0.638671875,1.0,3.0,3.0,0.0,514.1601563,124.5117188,0.268066406,C C C,0.963805429,1,F,20,NAN,9,20
1,1,1.0,2,1.057128906,1.0,2.0,2.0,0.0,891.6015625,165.5273438,0.569824219,C C,1.001342923,1,F,20,NAN,9,21
1,2,2.0,3,0.555664063,1.0,1.0,1.0,0.0,436.0351563,119.6289063,0.436035156,C,1.213492739,1,F,20,NAN,9,22
1,1,1.0,1,0.843261719,1.0,1.0,1.0,0.0,705.5664063,137.6953125,0.705566406,C,1.18254289,1,F,20,NAN,9,23
1,1,1.0,3,0.642089844,1.0,1.0,1.0,0.0,520.9960938,121.09375,0.520996094,C,1.094742906,1,F,20,NAN,9,24
1,1,1.0,1,0.765136719,1.0,1.0,1.0,0.0,581.5429688,183.59375,0.581542969,C,0.954605431,1,F,20,NAN,9,25
1,2,2.0,4,0.592285156,1.0,1.0,1.0,0.0,453.125,139.1601563,0.453125,C,1.070667765,1,F,20,NAN,9,26
1,1,1.0,3,0.571289063,1.0,1.0,1.0,0.0,451.171875,120.1171875,0.451171875,C,1.07291791,1,F,20,NAN,9,27
1,2,1.0,1,0.666992188,0.0,1.0,0.0,1.0,449.7070313,217.2851563,0.449707031,I,0.920317937,1,F,20,NAN,9,28
1,2,2.0,4,0.538085938,1.0,1.0,1.0,0.0,421.3867188,116.6992188,0.421386719,C,1.203955241,1,F,20,NAN,9,29
1,1,1.0,3,0.954101563,1.0,5.0,5.0,0.0,852.0507813,102.0507813,0.336425781,C C C C C,0.914255438,1,F,20,NAN,9,30
1,1,1.0,2,0.970703125,1.0,2.0,2.0,0.0,871.5820313,99.12109375,0.54296875,C C,0.938505434,1,F,20,NAN,9,31
1,1,1.0,4,0.673828125,1.0,1.0,1.0,0.0,516.1132813,157.7148438,0.516113281,C,0.947080432,1,F,20,NAN,9,32
1,2,1.0,2,0.691894531,0.0,1.0,0.0,1.0,546.875,145.0195313,0.546875,I,1.000017923,1,F,20,NAN,9,33
1,2,2.0,4,0.673339844,1.0,1.0,1.0,0.0,536.6210938,136.71875,0.536621094,C,1.242392734,1,F,20,NAN,9,34
1,1,1.0,3,0.543945313,1.0,1.0,1.0,0.0,363.28125,180.6640625,0.36328125,C,1.051617914,1,F,20,NAN,9,35
1,1,1.0,1,0.811035156,1.0,1.0,1.0,0.0,620.1171875,190.9179688,0.620117188,C,1.031992917,1,F,20,NAN,9,36
1,1,1.0,2,0.806640625,1.0,1.0,1.0,0.0,620.6054688,186.0351563,0.620605469,C,0.924005437,1,F,20,NAN,9,37
1,2,1.0,2,0.795410156,0.0,2.0,0.0,2.0,662.109375,133.3007813,0.509765625,I I,1.044367915,1,F,20,NAN,9,38
1,1,1.0,3,0.935546875,1.0,3.0,2.0,1.0,868.1640625,67.3828125,0.583007813,C I C,1.019655419,1,F,20,NAN,9,39
1,2,2.0,3,0.830078125,1.0,1.0,1.0,0.0,725.0976563,104.9804688,0.725097656,C,1.244305234,1,F,20,NAN,9,40
1,2,1.0,1,0.824707031,0.0,1.0,0.0,1.0,656.7382813,167.96875,0.656738281,I,0.894180442,1,F,20,NAN,9,41
1,2,2.0,4,0.572265625,1.0,1.0,1.0,0.0,384.765625,187.5,0.384765625,C,1.165455248,1,F,20,NAN,9,42
1,1,1.0,4,0.579101563,1.0,1.0,1.0,0.0,409.1796875,169.921875,0.409179688,C,0.976030427,1,F,20,NAN,9,43
1,1,1.0,2,1.16796875,1.0,2.0,2.0,0.0,1090.820313,77.1484375,0.715820313,C C,1.307792868,1,F,20,NAN,9,44
1,1,1.0,1,0.995605469,1.0,2.0,2.0,0.0,868.1640625,127.4414063,0.446289063,C C,0.884017944,1,F,20,NAN,9,45
1,2,2.0,4,0.504882813,1.0,1.0,1.0,0.0,370.1171875,134.765625,0.370117188,C,1.156855249,1,F,20,NAN,9,46
1,1,2.0,2,0.913085938,0.0,2.0,0.0,2.0,843.75,69.3359375,0.485839844,I I,1.396267706,1,F,20,NAN,9,47
1,2,2.0,4,0.546386719,1.0,1.0,1.0,0.0,449.21875,97.16796875,0.44921875,C,1.4317302,1,F,20,NAN,9,48
1,1,1.0,3,0.586914063,1.0,2.0,2.0,0.0,472.65625,114.2578125,0.319335938,C C,0.95981793,1,F,20,NAN,9,49
1,2,1.0,1,0.689453125,0.0,1.0,0.0,1.0,501.953125,187.5,0.501953125,I,0.953180431,1,F,20,NAN,9,50
1,2,2.0,4,0.596191406,1.0,2.0,1.0,1.0,493.1640625,103.0273438,0.362792969,I C,1.019717774,1,F,20,NAN,9,51
1,1,2.0,3,0.832519531,0.0,2.0,0.0,2.0,742.6757813,89.84375,0.386230469,I I,1.082530263,1,F,20,NAN,9,52
1,2,2.0,1,0.622558594,1.0,NAN,NAN,NAN,NAN,NAN,NAN,NAN,NAN,0,F,20,NAN,9,53
1,2,1.0,0,0.521484375,0.0,2.0,0.0,2.0,367.6757813,153.8085938,0.265136719,I I,1.008730421,1,F,20,NAN,9,54
1,1,1.0,3,0.521484375,1.0,1.0,1.0,0.0,392.0898438,129.3945313,0.392089844,C,0.999817923,1,F,20,NAN,9,55
1,2,2.0,4,0.560546875,1.0,1.0,1.0,0.0,424.3164063,136.2304688,0.424316406,C,1.146567751,1,F,20,NAN,9,56
1,2,2.0,4,0.501464844,1.0,1.0,1.0,0.0,375.0,126.4648438,0.375,C,1.183642744,1,F,20,NAN,9,57
1,1,1.0,3,0.650390625,1.0,1.0,1.0,0.0,426.7578125,223.6328125,0.426757813,C,0.84878045,1,F,20,NAN,9,58
1,2,2.0,2,0.622070313,1.0,1.0,1.0,0.0,468.75,153.3203125,0.46875,C,0.918980292,1,F,20,NAN,9,59
1,1,1.0,1,0.919921875,1.0,2.0,2.0,0.0,769.53125,150.390625,0.469238281,C C,1.106830404,1,F,20,NAN,9,60
1,1,1.0,4,0.575683594,1.0,2.0,2.0,0.0,444.8242188,130.859375,0.213867188,C C,0.957667931,1,F,20,NAN,9,61
1,1,1.0,2,0.484863281,1.0,1.0,1.0,0.0,296.875,187.9882813,0.296875,C,1.047055415,1,F,20,NAN,9,62
1,2,2.0,1,0.654785156,1.0,1.0,1.0,0.0,507.3242188,147.4609375,0.507324219,C,0.98224278,1,F,20,NAN,9,63
1,2,2.0,3,0.578613281,1.0,1.0,1.0,0.0,471.6796875,106.9335938,0.471679688,C,1.195467742,1,F,20,NAN,9,64
1,2,1.0,1,0.545898438,0.0,1.0,0.0,1.0,328.6132813,217.2851563,0.328613281,I,0.901742941,1,F,20,NAN,9,65
1,2,2.0,4,0.708496094,1.0,1.0,1.0,0.0,591.3085938,117.1875,0.591308594,C,1.135505253,1,F,20,NAN,9,66
1,2,2.0,4,0.53125,1.0,1.0,1.0,0.0,410.15625,121.09375,0.41015625,C,1.225730237,1,F,20,NAN,9,67
1,2,2.0,4,0.67578125,1.0,3.0,1.0,2.0,579.5898438,96.19140625,0.315429688,I I C,1.313105221,1,F,20,NAN,9,68
1,1,1.0,1,0.573242188,1.0,2.0,2.0,0.0,381.8359375,191.40625,0.277832031,C C,0.976367927,1,F,20,NAN,9,69
1,1,2.0,0,0.728027344,0.0,2.0,1.0,1.0,622.5585938,105.46875,0.303710938,C I,0.92681779,1,F,20,NAN,9,70
1,1,1.0,1,0.84765625,1.0,1.0,1.0,0.0,709.9609375,137.6953125,0.709960938,C,1.189042889,1,F,20,NAN,10,1
1,1,2.0,3,0.645507813,0.0,1.0,0.0,1.0,527.8320313,117.6757813,0.527832031,I,1.252167732,1,F,20,NAN,10,2
1,2,2.0,3,0.494628906,1.0,1.0,1.0,0.0,363.28125,131.3476563,0.36328125,C,1.366905212,1,F,20,NAN,10,3
1,2,2.0,2,1.263671875,1.0,3.0,3.0,0.0,1096.679688,166.9921875,0.575683594,C C C,1.728592647,1,F,20,NAN,10,4
1,1,1.0,4,0.646484375,1.0,NAN,NAN,NAN,NAN,NAN,NAN,NAN,NAN,0,F,20,NAN,10,5
1,2,1.0,2,0.545410156,0.0,NAN,NAN,NAN,NAN,NAN,NAN,NAN,NAN,0,F,20,NAN,10,6
1,1,1.0,4,0.671386719,1.0,NAN,NAN,NAN,NAN,NAN,NAN,NAN,NAN,0,F,20,NAN,10,7
1,2,2.0,1,0.873535156,1.0,2.0,2.0,0.0,776.3671875,97.16796875,0.68359375,C C,1.15513025,1,F,20,NAN,10,8
1,1,2.0,3,0.520507813,0.0,1.0,0.0,1.0,415.0390625,105.46875,0.415039063,I,1.341380216,1,F,20,NAN,10,9
1,1,1.0,3,0.599609375,1.0,1.0,1.0,0.0,426.2695313,173.3398438,0.426269531,C,0.945642933,1,F,20,NAN,10,10
1,1,1.0,4,0.479492188,1.0,1.0,1.0,0.0,337.890625,141.6015625,0.337890625,C,1.066267911,1,F,20,NAN,10,11
1,1,1.0,1,0.685058594,1.0,1.0,1.0,0.0,574.21875,110.8398438,0.57421875,C,1.208192886,1,F,20,NAN,10,12
1,1,2.0,4,0.740234375,0.0,1.0,0.0,1.0,635.7421875,104.4921875,0.635742188,I,1.364417712,1,F,20,NAN,10,13
1,1,1.0,2,1.031738281,1.0,2.0,1.0,1.0,919.4335938,112.3046875,0.38671875,I C,1.050205414,1,F,20,NAN,10,14
1,2,2.0,4,0.634765625,1.0,1.0,1.0,0.0,537.109375,97.65625,0.537109375,C,1.584730173,1,F,20,NAN,10,15
1,2,2.0,4,0.487304688,1.0,1.0,1.0,0.0,390.625,96.6796875,0.390625,C,1.568980176,1,F,20,NAN,10,16
1,2,2.0,4,0.474609375,1.0,1.0,1.0,0.0,349.609375,125.0,0.349609375,C,1.15428025,1,F,20,NAN,10,17
1,1,1.0,3,0.536621094,1.0,1.0,1.0,0.0,395.9960938,140.625,0.395996094,C,0.934230435,1,F,20,NAN,10,18
1,1,1.0,3,0.918457031,1.0,2.0,2.0,0.0,826.171875,92.28515625,0.449707031,C C,1.07439291,1,F,20,NAN,10,19
1,1,1.0,4,0.606933594,1.0,1.0,1.0,0.0,481.9335938,125.0,0.481933594,C,0.907655439,1,F,20,NAN,10,20
1,1,1.0,4,0.616210938,1.0,1.0,1.0,0.0,472.1679688,144.0429688,0.472167969,C,0.911942939,1,F,20,NAN,10,21
1,2,2.0,4,0.877441406,1.0,4.0,1.0,3.0,802.734375,74.70703125,0.370117188,I I I C,1.652817661,1,F,20,NAN,10,22
1,1,1.0,2,0.520019531,1.0,2.0,2.0,0.0,402.8320313,117.1875,0.334960938,C C,1.116642902,1,F,20,NAN,10,23
1,2,2.0,4,0.59375,1.0,1.0,1.0,0.0,483.3984375,110.3515625,0.483398438,C,1.26159273,1,F,20,NAN,10,24
1,1,1.0,3,0.790527344,1.0,1.0,1.0,0.0,659.6679688,130.859375,0.659667969,C,0.948167932,1,F,20,NAN,10,25
1,2,2.0,4,0.52734375,1.0,1.0,1.0,0.0,431.640625,95.703125,0.431640625,C,1.280992727,1,F,20,NAN,10,26
1,2,2.0,4,0.515136719,1.0,1.0,1.0,0.0,408.203125,106.9335938,0.408203125,C,1.138705252,1,F,20,NAN,10,27
1,1,1.0,4,1.177734375,1.0,2.0,2.0,0.0,1085.9375,91.796875,0.758300781,C C,1.141505398,1,F,20,NAN,10,28
1,2,2.0,4,0.563964844,1.0,1.0,1.0,0.0,458.0078125,105.9570313,0.458007813,C,1.168267747,1,F,20,NAN,10,29
1,1,1.0,3,0.633789063,1.0,1.0,1.0,0.0,508.3007813,125.4882813,0.508300781,C,1.083430408,1,F,20,NAN,10,30
1,1,1.0,4,0.631347656,1.0,1.0,1.0,0.0,506.3476563,125.0,0.506347656,C,1.008942921,1,F,20,NAN,10,31
1,2,2.0,1,1.139160156,1.0,2.0,2.0,0.0,1024.414063,114.7460938,0.733398438,C C,1.169467747,1,F,20,NAN,10,32
1,1,2.0,0,0.556640625,0.0,1.0,0.0,1.0,438.9648438,117.6757813,0.438964844,I,1.349830215,1,F,20,NAN,10,33
1,2,1.0,2,0.6328125,0.0,1.0,0.0,1.0,516.6015625,116.2109375,0.516601563,I,0.979755427,1,F,20,NAN,10,34
1,2,2.0,1,0.749023438,1.0,1.0,1.0,0.0,652.8320313,96.19140625,0.652832031,C,1.128567754,1,F,20,NAN,10,35
1,2,2.0,4,0.553222656,1.0,1.0,1.0,0.0,442.8710938,110.3515625,0.442871094,C,1.260342731,1,F,20,NAN,10,36
1,1,1.0,4,0.604492188,1.0,1.0,1.0,0.0,455.078125,149.4140625,0.455078125,C,1.07313041,1,F,20,NAN,10,37
1,2,2.0,4,0.505859375,1.0,1.0,1.0,0.0,383.7890625,122.0703125,0.383789063,C,1.113130257,1,F,20,NAN,10,38
1,2,1.0,1,0.818847656,0.0,1.0,0.0,1.0,623.5351563,195.3125,0.623535156,I,0.862417948,1,F,20,NAN,10,39
1,2,2.0,3,0.713378906,1.0,2.0,1.0,1.0,630.3710938,83.0078125,0.358886719,I C,1.366767712,1,F,20,NAN,10,40
1,1,1.0,2,0.711425781,1.0,1.0,1.0,0.0,509.765625,201.6601563,0.509765625,C,0.908342939,1,F,20,NAN,10,41
1,1,1.0,1,0.725585938,1.0,1.0,1.0,0.0,536.6210938,188.9648438,0.536621094,C,0.90343044,1,F,20,NAN,10,42
1,1,2.0,1,0.741699219,0.0,1.0,0.0,1.0,581.0546875,160.6445313,0.581054688,I,1.061730266,1,F,20,NAN,10,43
1,2,2.0,3,0.703125,1.0,1.0,1.0,0.0,555.6640625,147.4609375,0.555664063,C,1.033567771,1,F,20,NAN,10,44
1,1,1.0,1,0.65234375,1.0,1.0,1.0,0.0,486.328125,166.015625,0.486328125,C,0.955467931,1,F,20,NAN,10,45
1,2,2.0,4,0.63671875,1.0,1.0,1.0,0.0,497.0703125,139.6484375,0.497070313,C,0.960530284,1,F,20,NAN,10,46
1,1,1.0,1,0.600585938,1.0,1.0,1.0,0.0,446.7773438,153.8085938,0.446777344,C,0.950967932,1,F,20,NAN,10,47
1,1,2.0,1,0.561035156,0.0,1.0,0.0,1.0,446.2890625,114.7460938,0.446289063,I,1.15471775,1,F,20,NAN,10,48
1,2,2.0,4,0.566894531,1.0,1.0,1.0,0.0,461.9140625,104.9804688,0.461914063,C,1.087717762,1,F,20,NAN,10,49
1,2,2.0,4,0.572265625,1.0,1.0,1.0,0.0,435.546875,136.71875,0.435546875,C,0.920780291,1,F,20,NAN,10,50
1,1,1.0,4,0.500976563,1.0,1.0,1.0,0.0,371.5820313,129.3945313,0.371582031,C,0.999105423,1,F,20,NAN,10,51
1,2,1.0,1,0.73046875,0.0,1.0,0.0,1.0,609.375,121.09375,0.609375,I,0.966567929,1,F,20,NAN,10,52
1,1,1.0,1,0.55078125,1.0,1.0,1.0,0.0,421.875,128.90625,0.421875,C,1.003992922,1,F,20,NAN,10,53
1,2,2.0,3,0.635253906,1.0,1.0,1.0,0.0,499.5117188,135.7421875,0.499511719,C,1.079205263,1,F,20,NAN,10,54
1,1,1.0,4,0.528808594,1.0,1.0,1.0,0.0,400.390625,128.4179688,0.400390625,C,1.176167891,1,F,20,NAN,10,55
1,1,1.0,4,0.710449219,1.0,1.0,1.0,0.0,610.8398438,99.609375,0.610839844,C,1.148130396,1,F,20,NAN,10,56
1,1,1.0,4,0.812011719,1.0,2.0,2.0,0.0,713.3789063,98.6328125,0.381347656,C C,1.061942912,1,F,20,NAN,10,57
1,1,1.0,1,0.907714844,1.0,4.0,4.0,0.0,764.6484375,143.0664063,0.342773438,C C C C,0.893455442,1,F,20,NAN,10,58
1,2,2.0,4,0.538574219,1.0,1.0,1.0,0.0,400.8789063,137.6953125,0.400878906,C,0.909392793,1,F,20,NAN,10,59
1,2,2.0,2,0.660644531,1.0,1.0,1.0,0.0,537.5976563,123.046875,0.537597656,C,0.942280288,1,F,20,NAN,10,60
1,1,1.0,4,0.81640625,1.0,2.0,2.0,0.0,719.2382813,97.16796875,0.372070313,C C,1.009092921,1,F,20,NAN,10,61
1,2,1.0,4,0.801757813,0.0,2.0,0.0,2.0,662.109375,139.6484375,0.244140625,I I,0.974417928,1,F,20,NAN,10,62
1,1,1.0,3,0.571777344,1.0,1.0,1.0,0.0,406.7382813,165.0390625,0.406738281,C,0.858767948,1,F,20,NAN,10,63
1,2,2.0,3,0.5234375,1.0,1.0,1.0,0.0,387.6953125,135.7421875,0.387695313,C,1.191405243,1,F,20,NAN,10,64
1,1,1.0,1,0.597167969,1.0,1.0,1.0,0.0,381.8359375,215.3320313,0.381835938,C,0.973867928,1,F,20,NAN,10,65
1,1,1.0,4,0.596679688,1.0,1.0,1.0,0.0,433.1054688,163.5742188,0.433105469,C,1.067017911,1,F,20,NAN,10,66
1,1,1.0,1,0.57421875,1.0,1.0,1.0,0.0,422.3632813,151.8554688,0.422363281,C,0.992705424,1,F,20,NAN,10,67
1,1,1.0,3,0.559570313,1.0,1.0,1.0,0.0,415.0390625,144.53125,0.415039063,C,0.987717925,1,F,20,NAN,10,68
1,1,1.0,1,0.913574219,1.0,1.0,1.0,0.0,739.7460938,173.828125,0.739746094,C,0.84821795,1,F,20,NAN,10,69
1,2,2.0,3,0.490234375,1.0,1.0,1.0,0.0,342.2851563,147.9492188,0.342285156,C,1.171705247,1,F,20,NAN,10,70
2,2,2.0,1,0.719726563,1.0,1.0,1.0,0.0,639.6484375,80.078125,0.639648438,C,1.562055177,1,H,20,NAN,6,1
2,1,1.0,3,0.567871094,1.0,1.0,1.0,0.0,467.2851563,100.5859375,0.467285156,C,1.244330379,1,H,20,NAN,6,2
2,1,1.0,3,0.604980469,1.0,1.0,1.0,0.0,501.4648438,103.515625,0.501464844,C,1.066767911,1,H,20,NAN,6,3
2,2,2.0,4,0.550292969,1.0,1.0,1.0,0.0,471.1914063,79.1015625,0.471191406,C,1.245355233,1,H,20,NAN,6,4
2,2,2.0,4,0.549804688,1.0,1.0,1.0,0.0,468.75,81.0546875,0.46875,C,1.224655237,1,H,20,NAN,6,5
2,1,1.0,4,0.699707031,1.0,NAN,NAN,NAN,NAN,NAN,NAN,NAN,NAN,0,H,20,NAN,6,6
2,2,1.0,4,0.748046875,0.0,2.0,0.0,2.0,574.21875,173.828125,0.289550781,I I,1.243730379,1,H,20,NAN,6,7
2,1,2.0,2,0.600585938,0.0,1.0,0.0,1.0,510.2539063,90.33203125,0.510253906,I,1.196392742,1,H,20,NAN,6,8
2,2,2.0,4,0.461914063,1.0,1.0,1.0,0.0,384.765625,77.1484375,0.384765625,C,1.117467756,1,H,20,NAN,6,9
2,2,2.0,3,0.678222656,1.0,1.0,1.0,0.0,601.5625,76.66015625,0.6015625,C,1.081842763,1,H,20,NAN,6,10
2,1,1.0,4,0.926757813,1.0,1.0,1.0,0.0,806.1523438,120.6054688,0.806152344,C,1.258042877,1,H,20,NAN,6,11
2,1,1.0,2,0.763671875,1.0,1.0,1.0,0.0,669.4335938,94.23828125,0.669433594,C,1.089917907,1,H,20,NAN,6,12
2,2,2.0,2,0.959960938,1.0,1.0,1.0,0.0,851.5625,108.3984375,0.8515625,C,0.881992798,1,H,20,NAN,6,13
2,2,2.0,4,0.553710938,1.0,1.0,1.0,0.0,483.8867188,69.82421875,0.483886719,C,1.065080266,1,H,20,NAN,6,14
2,1,2.0,1,0.796875,0.0,1.0,0.0,1.0,714.3554688,82.51953125,0.714355469,I,0.969117783,1,H,20,NAN,6,15
2,1,2.0,1,0.89453125,0.0,1.0,0.0,1.0,776.8554688,117.6757813,0.776855469,I,0.839955306,1,H,20,NAN,6,16
2,2,2.0,4,0.919921875,1.0,1.0,1.0,0.0,809.5703125,110.3515625,0.809570313,C,0.900005295,1,H,20,NAN,6,17
2,1,1.0,4,0.573730469,1.0,1.0,1.0,0.0,485.8398438,87.890625,0.485839844,C,1.18553039,1,H,20,NAN,6,18
2,1,1.0,4,0.640625,1.0,1.0,1.0,0.0,515.1367188,125.4882813,0.515136719,C,0.90684294,1,H,20,NAN,6,19
2,2,2.0,2,0.902832031,1.0,1.0,1.0,0.0,830.078125,72.75390625,0.830078125,C,1.15059275,1,H,20,NAN,6,20
2,2,1.0,1,0.90625,0.0,1.0,0.0,1.0,790.5273438,115.7226563,0.790527344,I,0.945005433,1,H,20,NAN,6,21
2,1,1.0,1,0.717773438,1.0,1.0,1.0,0.0,626.953125,90.8203125,0.626953125,C,0.884530444,1,H,20,NAN,6,22
2,2,2.0,1,1.348144531,1.0,1.0,1.0,0.0,1209.472656,138.671875,1.209472656,C,1.235742735,1,H,20,NAN,6,23
2,1,1.0,4,0.71484375,1.0,1.0,1.0,0.0,610.3515625,104.4921875,0.610351563,C,0.929667936,1,H,20,NAN,6,24
2,2,2.0,2,1.244140625,1.0,3.0,3.0,0.0,1169.921875,74.21875,0.655273438,C C C,1.501130188,1,H,20,NAN,6,25
2,2,2.0,2,0.63671875,1.0,1.0,1.0,0.0,538.0859375,98.6328125,0.538085938,C,0.994230278,1,H,20,NAN,6,26
2,1,1.0,3,0.830078125,1.0,1.0,1.0,0.0,724.609375,105.46875,0.724609375,C,1.001042923,1,H,20,NAN,6,27
2,2,2.0,3,0.876953125,1.0,1.0,1.0,0.0,784.6679688,92.28515625,0.784667969,C,0.989642779,1,H,20,NAN,6,28
2,1,1.0,4,0.673339844,1.0,1.0,1.0,0.0,596.6796875,76.66015625,0.596679688,C,1.050655414,1,H,20,NAN,6,29
2,1,1.0,2,0.925292969,1.0,1.0,1.0,0.0,849.609375,75.68359375,0.849609375,C,1.161955394,1,H,20,NAN,6,30
2,1,1.0,4,0.536621094,1.0,1.0,1.0,0.0,456.5429688,80.078125,0.456542969,C,1.166555393,1,H,20,NAN,6,31
2,1,1.0,4,0.485351563,1.0,1.0,1.0,0.0,386.2304688,99.12109375,0.386230469,C,0.879867944,1,H,20,NAN,6,32
2,2,1.0,3,0.53125,0.0,1.0,0.0,1.0,412.109375,119.140625,0.412109375,I,0.815192956,1,H,20,NAN,6,33
2,2,2.0,2,1.077148438,1.0,2.0,2.0,0.0,995.1171875,82.03125,0.738769531,C C,0.919830292,1,H,20,NAN,6,34
2,2,1.0,3,0.535644531,0.0,1.0,0.0,1.0,384.2773438,151.3671875,0.384277344,I,1.165292893,1,H,20,NAN,6,35
2,2,2.0,4,0.691894531,1.0,1.0,1.0,0.0,560.546875,131.3476563,0.560546875,C,0.907417794,1,H,20,NAN,6,36
2,2,2.0,2,0.767578125,1.0,1.0,1.0,0.0,660.15625,107.421875,0.66015625,C,0.920767791,1,H,20,NAN,6,37
2,1,2.0,1,0.790039063,0.0,1.0,0.0,1.0,677.2460938,112.7929688,0.677246094,I,0.962992784,1,H,20,NAN,6,38
2,2,2.0,2,1.05078125,1.0,5.0,5.0,0.0,946.2890625,104.4921875,0.434570313,C C C C C,0.957180285,1,H,20,NAN,6,39
2,1,2.0,2,0.77734375,0.0,1.0,1.0,0.0,NAN,NAN,NAN,I,0.950330286,0,H,20,NAN,6,40
2,1,1.0,4,0.705078125,1.0,2.0,2.0,0.0,593.75,111.328125,0.528320313,C C,0.936280434,1,H,20,NAN,6,41
2,1,2.0,2,1.403808594,0.0,3.0,1.0,2.0,1285.15625,118.6523438,0.197265625,C I I,1.061105266,1,H,20,NAN,6,42
2,1,1.0,4,0.547851563,1.0,NAN,NAN,NAN,NAN,NAN,NAN,NAN,NAN,0,H,20,NAN,6,43
2,2,2.0,4,0.583007813,1.0,NAN,NAN,NAN,NAN,NAN,NAN,NAN,NAN,0,H,20,NAN,6,44
2,1,1.0,4,0.444824219,1.0,2.0,1.0,1.0,361.8164063,83.0078125,0.114746094,I C,1.1299554,1,H,20,NAN,6,45
2,1,1.0,4,0.331542969,1.0,1.0,1.0,0.0,221.1914063,110.3515625,0.221191406,C,1.100505405,1,H,20,NAN,6,46
2,2,2.0,4,0.4609375,1.0,1.0,1.0,0.0,388.1835938,72.75390625,0.388183594,C,1.226680237,1,H,20,NAN,6,47
2,2,2.0,1,0.825195313,1.0,NAN,NAN,NAN,NAN,NAN,NAN,NAN,NAN,0,H,20,NAN,6,48
2,2,2.0,1,0.557128906,1.0,NAN,NAN,NAN,NAN,NAN,NAN,NAN,NAN,0,H,20,NAN,6,49
2,2,2.0,2,0.967773438,1.0,1.0,1.0,0.0,828.125,139.6484375,0.828125,C,0.878605299,1,H,20,NAN,6,50
2,1,1.0,1,0.631347656,1.0,1.0,0.0,1.0,NAN,NAN,NAN,C,1.006992922,0,H,20,NAN,6,51
2,1,2.0,1,0.936035156,0.0,NAN,NAN,NAN,NAN,NAN,NAN,NAN,NAN,0,H,20,NAN,6,52
2,1,1.0,4,0.495117188,1.0,NAN,NAN,NAN,NAN,NAN,NAN,NAN,NAN,0,H,20,NAN,6,53
2,2,2.0,4,0.876464844,1.0,1.0,1.0,0.0,723.6328125,152.8320313,0.723632813,C,0.978805281,1,H,20,NAN,6,54
2,2,2.0,2,0.826660156,1.0,1.0,1.0,0.0,669.921875,156.7382813,0.669921875,C,0.862505302,1,H,20,NAN,6,55
2,1,1.0,2,0.786621094,1.0,1.0,1.0,0.0,653.8085938,132.8125,0.653808594,C,0.921930437,1,H,20,NAN,6,56
2,2,2.0,3,0.842773438,1.0,1.0,1.0,0.0,718.75,124.0234375,0.71875,C,0.93118029,1,H,20,NAN,6,57
2,1,1.0,1,0.969238281,1.0,1.0,1.0,0.0,862.3046875,106.9335938,0.862304688,C,0.965692929,1,H,20,NAN,6,58
2,1,1.0,1,1.478515625,1.0,1.0,1.0,0.0,1352.539063,125.9765625,1.352539063,C,NAN,1,H,20,NAN,6,59
2,1,1.0,4,0.524414063,1.0,1.0,1.0,0.0,429.6875,94.7265625,0.4296875,C,0.992017924,1,H,20,NAN,6,60
2,2,2.0,4,0.631835938,1.0,1.0,1.0,0.0,563.4765625,68.359375,0.563476563,C,1.401492705,1,H,20,NAN,6,61
2,1,2.0,1,0.948730469,0.0,1.0,0.0,1.0,836.4257813,112.3046875,0.836425781,I,0.941817788,1,H,20,NAN,6,62
2,2,2.0,1,1.342773438,1.0,1.0,1.0,0.0,1211.425781,131.3476563,1.211425781,C,0.869330301,1,H,20,NAN,6,63
2,1,1.0,3,0.500488281,1.0,1.0,1.0,0.0,416.9921875,83.49609375,0.416992188,C,1.191655389,1,H,20,NAN,6,64
2,2,2.0,1,1.021972656,1.0,2.0,2.0,0.0,912.5976563,109.375,0.625488281,C C,0.932967789,1,H,20,NAN,6,65
2,1,1.0,4,0.4296875,1.0,1.0,1.0,0.0,364.7460938,64.94140625,0.364746094,C,1.291967871,1,H,20,NAN,6,66
2,2,1.0,2,0.560058594,0.0,1.0,0.0,1.0,435.546875,124.5117188,0.435546875,I,1.069742911,1,H,20,NAN,6,67
2,2,1.0,4,0.819824219,0.0,2.0,0.0,2.0,701.6601563,118.1640625,0.382324219,I I,1.138742898,1,H,20,NAN,6,68
2,1,1.0,1,1.077636719,1.0,1.0,1.0,0.0,984.8632813,92.7734375,0.984863281,C,0.989180425,1,H,20,NAN,6,69
2,1,1.0,4,0.469238281,1.0,1.0,1.0,0.0,369.6289063,99.609375,0.369628906,C,1.123942901,1,H,20,NAN,6,70
2,2,2.0,1,0.767578125,1.0,3.0,2.0,1.0,660.6445313,106.9335938,0.444335938,C I C,1.557792678,1,H,20,NAN,7,1
2,1,1.0,2,0.673828125,1.0,1.0,1.0,0.0,594.2382813,79.58984375,0.594238281,C,1.002442923,1,H,20,NAN,7,2
2,2,2.0,1,0.82421875,1.0,1.0,1.0,0.0,713.3789063,110.8398438,0.713378906,C,1.068667765,1,H,20,NAN,7,3
2,2,2.0,1,0.920898438,1.0,1.0,1.0,0.0,837.4023438,83.49609375,0.837402344,C,1.315530221,1,H,20,NAN,7,4
2,1,1.0,4,0.445800781,1.0,1.0,1.0,0.0,367.6757813,78.125,0.367675781,C,1.137330398,1,H,20,NAN,7,5
2,2,2.0,4,0.75,1.0,1.0,1.0,0.0,652.8320313,97.16796875,0.652832031,C,0.933230289,1,H,20,NAN,7,6
2,1,1.0,3,0.618652344,1.0,1.0,1.0,0.0,484.375,134.2773438,0.484375,C,0.951117932,1,H,20,NAN,7,7
2,2,2.0,3,0.544921875,1.0,1.0,1.0,0.0,458.0078125,86.9140625,0.458007813,C,1.057942767,1,H,20,NAN,7,8
2,2,1.0,4,0.515136719,0.0,1.0,0.0,1.0,406.7382813,108.3984375,0.406738281,I,1.152780396,1,H,20,NAN,7,9
2,1,1.0,4,0.446289063,1.0,1.0,1.0,0.0,350.0976563,96.19140625,0.350097656,C,1.105367904,1,H,20,NAN,7,10
2,1,1.0,4,0.397460938,1.0,1.0,1.0,0.0,311.5234375,85.9375,0.311523438,C,1.01660542,1,H,20,NAN,7,11
2,1,1.0,2,0.961914063,1.0,1.0,1.0,0.0,854.9804688,106.9335938,0.854980469,C,0.938817934,1,H,20,NAN,7,12
2,2,2.0,2,1.170410156,1.0,2.0,2.0,0.0,1088.378906,82.03125,0.623535156,C C,1.187355244,1,H,20,NAN,7,13
2,1,1.0,4,0.500976563,1.0,1.0,1.0,0.0,408.203125,92.7734375,0.408203125,C,1.113367903,1,H,20,NAN,7,14
2,2,2.0,4,0.758789063,1.0,1.0,1.0,0.0,657.7148438,101.0742188,0.657714844,C,0.987667779,1,H,20,NAN,7,15
2,2,2.0,1,0.768554688,1.0,1.0,1.0,0.0,662.5976563,105.9570313,0.662597656,C,0.910392793,1,H,20,NAN,7,16
2,2,2.0,4,0.71875,1.0,2.0,1.0,1.0,641.6015625,77.1484375,0.428222656,I C,1.173842746,1,H,20,NAN,7,17
2,2,2.0,4,0.991699219,1.0,1.0,1.0,0.0,887.2070313,104.4921875,0.887207031,C,0.995305278,1,H,20,NAN,7,18
2,2,NAN,0,NAN,NAN,NAN,NAN,NAN,NAN,NAN,NAN,NAN,NAN,0,H,20,NAN,7,19
2,2,2.0,1,0.596679688,1.0,1.0,1.0,0.0,498.5351563,98.14453125,0.498535156,C,1.289905225,1,H,20,NAN,7,20
2,1,1.0,4,0.545898438,1.0,1.0,1.0,0.0,380.3710938,165.5273438,0.380371094,C,0.968005429,1,H,20,NAN,7,21
2,1,1.0,4,0.558105469,1.0,NAN,NAN,NAN,NAN,NAN,NAN,NAN,NAN,0,H,20,NAN,7,22
2,1,2.0,3,0.531738281,0.0,NAN,NAN,NAN,NAN,NAN,NAN,NAN,NAN,0,H,20,NAN,7,23
2,2,2.0,4,0.790527344,1.0,NAN,NAN,NAN,NAN,NAN,NAN,NAN,NAN,0,H,20,NAN,7,24
2,1,2.0,2,0.881835938,0.0,NAN,NAN,NAN,NAN,NAN,NAN,NAN,NAN,0,H,20,NAN,7,25
2,1,1.0,4,0.518066406,1.0,NAN,NAN,NAN,NAN,NAN,NAN,NAN,NAN,0,H,20,NAN,7,26
2,1,1.0,1,1.155761719,1.0,NAN,NAN,NAN,NAN,NAN,NAN,NAN,NAN,0,H,20,NAN,7,27
2,1,1.0,1,0.717773438,1.0,1.0,1.0,0.0,618.1640625,99.609375,0.618164063,C,1.010342921,1,H,20,NAN,7,28
2,2,2.0,1,1.1484375,1.0,1.0,1.0,0.0,964.3554688,184.0820313,0.964355469,C,0.879980299,1,H,20,NAN,7,29
2,1,2.0,1,0.989746094,0.0,1.0,0.0,1.0,882.3242188,107.421875,0.882324219,I,0.966917783,1,H,20,NAN,7,30
2,2,2.0,2,1.172851563,1.0,4.0,1.0,3.0,1089.355469,83.49609375,0.362792969,I I I C,1.213167739,1,H,20,NAN,7,31
2,2,2.0,3,0.770019531,1.0,2.0,1.0,1.0,685.0585938,84.9609375,0.291992188,I C,1.250442732,1,H,20,NAN,7,32
2,1,2.0,2,0.834472656,0.0,1.0,0.0,1.0,746.5820313,87.890625,0.746582031,I,1.109605258,1,H,20,NAN,7,33
2,2,2.0,1,1.198242188,1.0,1.0,1.0,0.0,1080.078125,118.1640625,1.080078125,C,0.921480291,1,H,20,NAN,7,34
2,2,2.0,4,1.08203125,1.0,1.0,1.0,0.0,979.4921875,102.5390625,0.979492188,C,1.191480243,1,H,20,NAN,7,35
2,1,1.0,1,1.305175781,1.0,2.0,2.0,0.0,460.9375,844.2382813,0.451660156,C C,0.96084293,1,H,20,NAN,7,36
2,1,1.0,4,0.688476563,1.0,1.0,1.0,0.0,584.9609375,103.515625,0.584960938,C,0.90250544,1,H,20,NAN,7,37
2,1,1.0,4,0.629882813,1.0,1.0,1.0,0.0,524.9023438,104.9804688,0.524902344,C,0.933142935,1,H,20,NAN,7,38
2,2,2.0,4,0.603515625,1.0,1.0,1.0,0.0,484.8632813,118.6523438,0.484863281,C,0.809317811,1,H,20,NAN,7,39
2,1,2.0,4,0.76171875,0.0,1.0,0.0,1.0,666.9921875,94.7265625,0.666992188,I,1.247305233,1,H,20,NAN,7,40
2,1,1.0,4,0.802734375,1.0,2.0,2.0,0.0,727.5390625,75.1953125,0.432617188,C C,1.198142888,1,H,20,NAN,7,41
2,1,1.0,4,0.707519531,1.0,1.0,1.0,0.0,522.4609375,185.0585938,0.522460938,C,1.006817922,1,H,20,NAN,7,42
2,1,2.0,4,0.602539063,0.0,1.0,0.0,1.0,525.8789063,76.66015625,0.525878906,I,1.214480239,1,H,20,NAN,7,43
2,1,1.0,1,0.761230469,1.0,1.0,1.0,0.0,617.6757813,143.5546875,0.617675781,C,0.867267947,1,H,20,NAN,7,44
2,2,1.0,1,1.010253906,0.0,1.0,0.0,1.0,888.1835938,122.0703125,0.888183594,I,0.978380427,1,H,20,NAN,7,45
2,1,1.0,4,0.513183594,1.0,1.0,1.0,0.0,383.3007813,129.8828125,0.383300781,C,1.055905413,1,H,20,NAN,7,46
2,1,1.0,4,0.536621094,1.0,1.0,1.0,0.0,432.1289063,104.4921875,0.432128906,C,1.010092921,1,H,20,NAN,7,47
2,1,1.0,4,0.412109375,1.0,1.0,1.0,0.0,295.8984375,116.2109375,0.295898438,C,1.1297679,1,H,20,NAN,7,48
2,2,2.0,1,0.812988281,1.0,1.0,1.0,0.0,728.0273438,84.9609375,0.728027344,C,1.26421773,1,H,20,NAN,7,49
2,1,1.0,4,0.39453125,1.0,1.0,1.0,0.0,257.8125,136.71875,0.2578125,C,1.095355406,1,H,20,NAN,7,50
2,1,1.0,4,0.409179688,1.0,1.0,1.0,0.0,250.4882813,158.6914063,0.250488281,C,0.920067937,1,H,20,NAN,7,51
2,1,1.0,4,0.395019531,1.0,1.0,1.0,0.0,285.15625,109.8632813,0.28515625,C,1.052755414,1,H,20,NAN,7,52
2,2,1.0,1,1.002441406,0.0,4.0,0.0,4.0,877.4414063,125.0,0.240722656,I I I I,0.986805425,1,H,20,NAN,7,53
2,1,1.0,4,0.434570313,1.0,1.0,1.0,0.0,336.4257813,98.14453125,0.336425781,C,0.952842931,1,H,20,NAN,7,54
2,2,2.0,4,0.767578125,1.0,1.0,1.0,0.0,666.5039063,101.0742188,0.666503906,C,0.997792778,1,H,20,NAN,7,55
2,1,1.0,4,0.385253906,1.0,1.0,1.0,0.0,255.3710938,129.8828125,0.255371094,C,0.882330444,1,H,20,NAN,7,56
2,2,1.0,4,0.393554688,0.0,1.0,0.0,1.0,253.4179688,140.1367188,0.253417969,I,1.004442922,1,H,20,NAN,7,57
2,1,1.0,4,0.416503906,1.0,1.0,1.0,0.0,245.6054688,170.8984375,0.245605469,C,0.864230447,1,H,20,NAN,7,58
2,1,2.0,1,0.849121094,0.0,1.0,0.0,1.0,736.328125,112.7929688,0.736328125,I,0.8728303,1,H,20,NAN,7,59
2,1,1.0,2,0.574707031,1.0,1.0,1.0,0.0,443.8476563,130.859375,0.443847656,C,0.934805435,1,H,20,NAN,7,60
2,2,1.0,1,0.360351563,0.0,1.0,0.0,1.0,196.7773438,163.5742188,0.196777344,I,0.910317939,1,H,20,NAN,7,61
2,1,1.0,4,0.879394531,1.0,2.0,2.0,0.0,790.5273438,88.8671875,0.526855469,C C,1.120705401,1,H,20,NAN,7,62
2,1,2.0,2,0.844238281,0.0,1.0,0.0,1.0,711.4257813,132.8125,0.711425781,I,0.828092808,1,H,20,NAN,7,63
2,2,2.0,1,1.0703125,1.0,2.0,2.0,0.0,975.5859375,94.7265625,0.568359375,C C,0.908742794,1,H,20,NAN,7,64
2,1,1.0,4,0.478515625,1.0,1.0,1.0,0.0,384.765625,93.75,0.384765625,C,1.206067886,1,H,20,NAN,7,65
2,2,2.0,1,0.556152344,1.0,1.0,1.0,0.0,467.7734375,88.37890625,0.467773438,C,1.190767743,1,H,20,NAN,7,66
2,1,1.0,1,0.493164063,1.0,1.0,1.0,0.0,379.3945313,113.7695313,0.379394531,C,1.012205421,1,H,20,NAN,7,67
2,1,2.0,1,0.827148438,0.0,1.0,0.0,1.0,720.2148438,106.9335938,0.720214844,I,0.951367786,1,H,20,NAN,7,68
2,1,2.0,1,0.813964844,0.0,1.0,0.0,1.0,671.875,142.0898438,0.671875,I,1.369630211,1,H,20,NAN,7,69
2,2,2.0,1,0.852539063,1.0,1.0,1.0,0.0,764.1601563,88.37890625,0.764160156,C,1.189580243,1,H,20,NAN,7,70
2,2,1.0,1,0.811035156,0.0,2.0,0.0,2.0,691.40625,119.6289063,0.599121094,I I,1.218342884,1,H,20,NAN,8,1
2,1,2.0,1,0.885253906,0.0,2.0,0.0,2.0,767.0898438,118.1640625,0.625488281,I I,1.071817764,1,H,20,NAN,8,2
2,2,2.0,2,0.627929688,1.0,1.0,1.0,0.0,536.6210938,91.30859375,0.536621094,C,1.188442744,1,H,20,NAN,8,3
2,1,2.0,2,1.024414063,0.0,2.0,0.0,2.0,916.9921875,107.421875,0.701660156,I I,1.055542767,1,H,20,NAN,8,4
2,1,2.0,2,0.897460938,0.0,1.0,0.0,1.0,800.78125,96.6796875,0.80078125,I,1.427755201,1,H,20,NAN,8,5
2,2,2.0,4,0.821289063,1.0,2.0,1.0,1.0,749.0234375,72.265625,0.591308594,I C,1.550592679,1,H,20,NAN,8,6
2,2,2.0,4,1.047363281,1.0,1.0,1.0,0.0,939.9414063,107.421875,0.939941406,C,1.307780222,1,H,20,NAN,8,7
2,2,1.0,1,1.03515625,0.0,1.0,0.0,1.0,912.5976563,122.5585938,0.912597656,I,0.983967926,1,H,20,NAN,8,8
2,2,2.0,4,0.541015625,1.0,1.0,1.0,0.0,464.3554688,76.66015625,0.464355469,C,1.237330235,1,H,20,NAN,8,9
2,1,1.0,4,0.602050781,1.0,1.0,1.0,0.0,507.3242188,94.7265625,0.507324219,C,1.165630393,1,H,20,NAN,8,10
2,2,2.0,4,0.54296875,1.0,1.0,1.0,0.0,470.2148438,72.75390625,0.470214844,C,1.454892696,1,H,20,NAN,8,11
2,1,1.0,2,1.150390625,1.0,1.0,1.0,0.0,1028.320313,122.0703125,1.028320313,C,0.979242927,1,H,20,NAN,8,12
2,1,1.0,2,0.89453125,1.0,1.0,1.0,0.0,784.6679688,109.8632813,0.784667969,C,1.226155383,1,H,20,NAN,8,13
2,1,2.0,3,0.549804688,0.0,1.0,0.0,1.0,449.7070313,100.0976563,0.449707031,I,1.309705222,1,H,20,NAN,8,14
2,1,1.0,1,1.427246094,1.0,2.0,1.0,1.0,1315.429688,111.8164063,1.102539063,I C,1.07338041,1,H,20,NAN,8,15
2,2,1.0,1,1.178710938,0.0,2.0,0.0,2.0,1076.660156,102.0507813,0.766601563,I I,1.131530399,1,H,20,NAN,8,16
2,2,NAN,0,NAN,NAN,NAN,NAN,NAN,NAN,NAN,NAN,NAN,NAN,0,H,20,NAN,8,17
2,2,1.0,1,1.086914063,0.0,1.0,0.0,1.0,987.7929688,99.12109375,0.987792969,I,1.200242887,1,H,20,NAN,8,18
2,1,2.0,0,0.553710938,0.0,1.0,0.0,1.0,467.2851563,86.42578125,0.467285156,I,1.125142755,1,H,20,NAN,8,19
2,1,2.0,2,0.971191406,0.0,1.0,0.0,1.0,802.2460938,168.9453125,0.802246094,I,1.113017757,1,H,20,NAN,8,20
2,1,1.0,2,1.25,1.0,1.0,1.0,0.0,1111.328125,138.671875,1.111328125,C,1.137742898,1,H,20,NAN,8,21
2,1,2.0,1,1.262695313,0.0,1.0,0.0,1.0,1156.738281,105.9570313,1.156738281,I,0.975505282,1,H,20,NAN,8,22
2,2,2.0,2,0.712890625,1.0,1.0,1.0,0.0,626.953125,85.9375,0.626953125,C,1.129355254,1,H,20,NAN,8,23
2,1,1.0,1,0.799316406,1.0,1.0,1.0,0.0,686.5234375,112.7929688,0.686523438,C,1.026905418,1,H,20,NAN,8,24
2,1,1.0,4,0.554199219,1.0,1.0,1.0,0.0,447.7539063,106.4453125,0.447753906,C,1.318442866,1,H,20,NAN,8,25
2,2,2.0,4,0.927734375,1.0,1.0,1.0,0.0,797.3632813,130.3710938,0.797363281,C,0.92866779,1,H,20,NAN,8,26
2,1,1.0,4,0.735839844,1.0,2.0,2.0,0.0,582.5195313,153.3203125,0.20703125,C C,0.845130451,1,H,20,NAN,8,27
2,2,2.0,3,0.744140625,1.0,1.0,1.0,0.0,624.0234375,120.1171875,0.624023438,C,0.954317785,1,H,20,NAN,8,28
2,2,2.0,3,0.697265625,1.0,1.0,1.0,0.0,600.0976563,97.16796875,0.600097656,C,1.077355263,1,H,20,NAN,8,29
2,2,2.0,3,0.666992188,1.0,1.0,1.0,0.0,587.4023438,79.58984375,0.587402344,C,1.280980227,1,H,20,NAN,8,30
2,1,1.0,4,0.544433594,1.0,1.0,1.0,0.0,450.6835938,93.75,0.450683594,C,1.083742908,1,H,20,NAN,8,31
2,1,1.0,4,0.5625,1.0,1.0,1.0,0.0,435.0585938,127.4414063,0.435058594,C,0.796217959,1,H,20,NAN,8,32
2,2,2.0,3,0.6953125,1.0,1.0,1.0,0.0,621.5820313,73.73046875,0.621582031,C,1.305142723,1,H,20,NAN,8,33
2,1,NAN,0,NAN,NAN,NAN,NAN,NAN,NAN,NAN,NAN,NAN,NAN,0,H,20,NAN,8,34
2,1,1.0,1,1.024902344,1.0,1.0,1.0,0.0,911.1328125,113.7695313,0.911132813,C,1.121667901,1,H,20,NAN,8,35
2,2,2.0,4,0.577148438,1.0,1.0,1.0,0.0,505.3710938,71.77734375,0.505371094,C,1.396680206,1,H,20,NAN,8,36
2,1,1.0,1,0.848632813,1.0,1.0,1.0,0.0,730.9570313,117.6757813,0.730957031,C,0.994142924,1,H,20,NAN,8,37
2,1,1.0,1,1.291503906,1.0,1.0,1.0,0.0,1153.808594,137.6953125,1.153808594,C,0.996692924,1,H,20,NAN,8,38
2,1,1.0,1,0.850097656,1.0,1.0,1.0,0.0,723.1445313,126.953125,0.723144531,C,1.145830397,1,H,20,NAN,8,39
2,2,2.0,3,0.591796875,1.0,1.0,1.0,0.0,482.9101563,108.8867188,0.482910156,C,0.840692806,1,H,20,NAN,8,40
2,2,2.0,3,0.583496094,1.0,1.0,1.0,0.0,516.1132813,67.3828125,0.516113281,C,1.49046769,1,H,20,NAN,8,41
2,2,2.0,1,0.762695313,1.0,2.0,2.0,0.0,676.7578125,85.9375,0.494628906,C C,1.232792736,1,H,20,NAN,8,42
2,1,2.0,2,0.832519531,0.0,1.0,0.0,1.0,705.5664063,126.953125,0.705566406,I,0.944530287,1,H,20,NAN,8,43
2,1,1.0,2,1.043457031,1.0,1.0,1.0,0.0,902.8320313,140.625,0.902832031,C,1.07413041,1,H,20,NAN,8,44
2,1,1.0,1,0.700195313,1.0,1.0,1.0,0.0,603.515625,96.6796875,0.603515625,C,0.994880424,1,H,20,NAN,8,45
2,2,2.0,4,0.575683594,1.0,1.0,1.0,0.0,508.3007813,67.3828125,0.508300781,C,1.484930191,1,H,20,NAN,8,46
2,1,1.0,1,0.673339844,1.0,1.0,1.0,0.0,550.78125,122.5585938,0.55078125,C,1.164042894,1,H,20,NAN,8,47
2,2,2.0,3,0.828613281,1.0,1.0,1.0,0.0,731.4453125,97.16796875,0.731445313,C,1.176742746,1,H,20,NAN,8,48
2,2,2.0,1,0.889160156,1.0,2.0,2.0,0.0,782.2265625,106.9335938,0.553710938,C C,0.945642787,1,H,20,NAN,8,49
2,1,1.0,4,0.678710938,1.0,1.0,1.0,0.0,591.796875,86.9140625,0.591796875,C,1.199667887,1,H,20,NAN,8,50
2,2,2.0,4,0.55859375,1.0,1.0,1.0,0.0,492.6757813,65.91796875,0.492675781,C,1.15463025,1,H,20,NAN,8,51
2,2,2.0,4,0.609863281,1.0,1.0,1.0,0.0,508.3007813,101.5625,0.508300781,C,0.946792787,1,H,20,NAN,8,52
2,1,1.0,4,0.768554688,1.0,2.0,2.0,0.0,695.8007813,72.75390625,0.420898438,C C,1.187542889,1,H,20,NAN,8,53
2,1,2.0,3,0.745605469,0.0,1.0,0.0,1.0,654.7851563,90.8203125,0.654785156,I,1.493005189,1,H,20,NAN,8,54
2,2,2.0,2,0.482910156,1.0,1.0,1.0,0.0,379.3945313,103.515625,0.379394531,C,0.907505294,1,H,20,NAN,8,55
2,1,1.0,2,0.952148438,1.0,1.0,1.0,0.0,816.8945313,135.2539063,0.816894531,C,1.093317906,1,H,20,NAN,8,56
2,2,1.0,1,0.799316406,0.0,1.0,0.0,1.0,688.9648438,110.3515625,0.688964844,I,1.24128038,1,H,20,NAN,8,57
2,2,2.0,1,0.857910156,1.0,1.0,1.0,0.0,776.3671875,81.54296875,0.776367188,C,1.502755187,1,H,20,NAN,8,58
2,1,2.0,1,1.2109375,0.0,1.0,0.0,1.0,1105.957031,104.9804688,1.105957031,I,1.296480224,1,H,20,NAN,8,59
2,2,2.0,2,0.832519531,1.0,1.0,1.0,0.0,743.1640625,89.35546875,0.743164063,C,1.228742736,1,H,20,NAN,8,60
2,2,2.0,1,0.890136719,1.0,1.0,1.0,0.0,783.203125,106.9335938,0.783203125,C,0.955805285,1,H,20,NAN,8,61
2,2,2.0,1,1.267578125,1.0,2.0,2.0,0.0,1181.640625,85.9375,0.901855469,C C,1.258805231,1,H,20,NAN,8,62
2,1,1.0,3,0.642089844,1.0,1.0,1.0,0.0,541.9921875,100.0976563,0.541992188,C,1.199105387,1,H,20,NAN,8,63
2,1,1.0,4,0.5078125,1.0,1.0,1.0,0.0,436.5234375,71.2890625,0.436523438,C,1.084367908,1,H,20,NAN,8,64
2,1,1.0,4,0.709472656,1.0,1.0,1.0,0.0,597.65625,111.8164063,0.59765625,C,1.080805409,1,H,20,NAN,8,65
2,2,2.0,3,0.612304688,1.0,1.0,1.0,0.0,535.6445313,76.66015625,0.535644531,C,1.115430257,1,H,20,NAN,8,66
2,2,1.0,1,0.829101563,0.0,1.0,0.0,1.0,691.40625,137.6953125,0.69140625,I,0.954055431,1,H,20,NAN,8,67
2,1,1.0,1,0.774414063,1.0,1.0,1.0,0.0,614.7460938,159.6679688,0.614746094,C,0.864455447,1,H,20,NAN,8,68
2,2,2.0,3,0.669433594,1.0,1.0,1.0,0.0,569.8242188,99.609375,0.569824219,C,1.365005212,1,H,20,NAN,8,69
2,1,NAN,0,NAN,NAN,NAN,NAN,NAN,NAN,NAN,NAN,NAN,NAN,0,H,20,NAN,8,70
2,1,1.0,1,0.725585938,1.0,1.0,1.0,0.0,643.5546875,82.03125,0.643554688,C,1.327505364,1,H,20,NAN,9,1
2,1,2.0,2,0.415527344,0.0,1.0,0.0,1.0,347.65625,67.87109375,0.34765625,I,1.82203013,1,H,20,NAN,9,2
2,2,2.0,2,0.684082031,1.0,1.0,1.0,0.0,600.5859375,83.49609375,0.600585938,C,1.574330175,1,H,20,NAN,9,3
2,2,1.0,4,0.9375,0.0,1.0,0.0,1.0,864.7460938,72.75390625,0.864746094,I,1.233267881,1,H,20,NAN,9,4
2,1,1.0,3,0.44140625,1.0,1.0,1.0,0.0,313.4765625,127.9296875,0.313476563,C,1.18710539,1,H,20,NAN,9,5
2,2,2.0,2,0.694824219,1.0,1.0,1.0,0.0,589.84375,104.9804688,0.58984375,C,1.062255266,1,H,20,NAN,9,6
2,2,2.0,2,0.844726563,1.0,1.0,1.0,0.0,744.140625,100.5859375,0.744140625,C,1.156380249,1,H,20,NAN,9,7
2,1,1.0,4,0.518066406,1.0,1.0,1.0,0.0,402.34375,115.7226563,0.40234375,C,0.900930441,1,H,20,NAN,9,8
2,1,1.0,4,1.148925781,1.0,3.0,3.0,0.0,971.6796875,177.2460938,0.391113281,C C C,0.914205438,1,H,20,NAN,9,9
2,2,2.0,3,0.69140625,1.0,1.0,1.0,0.0,607.421875,83.984375,0.607421875,C,1.281305227,1,H,20,NAN,9,10
2,2,2.0,4,0.656738281,1.0,1.0,1.0,0.0,530.7617188,125.9765625,0.530761719,C,1.04170527,1,H,20,NAN,9,11
2,1,2.0,1,1.244628906,0.0,2.0,0.0,2.0,1138.183594,106.4453125,0.851074219,I I,1.144655251,1,H,20,NAN,9,12
2,2,2.0,2,0.65625,1.0,1.0,1.0,0.0,575.1953125,81.0546875,0.575195313,C,1.344880216,1,H,20,NAN,9,13
2,1,1.0,4,0.578125,1.0,1.0,1.0,0.0,508.3007813,69.82421875,0.508300781,C,1.180830391,1,H,20,NAN,9,14
2,2,2.0,4,0.682128906,1.0,1.0,1.0,0.0,584.4726563,97.65625,0.584472656,C,1.125592755,1,H,20,NAN,9,15
2,1,1.0,4,0.547851563,1.0,1.0,1.0,0.0,465.3320313,82.51953125,0.465332031,C,0.986617925,1,H,20,NAN,9,16
2,1,2.0,1,0.753417969,0.0,1.0,0.0,1.0,653.3203125,100.0976563,0.653320313,I,1.234492735,1,H,20,NAN,9,17
2,2,2.0,3,0.750488281,1.0,1.0,1.0,0.0,633.7890625,116.6992188,0.633789063,C,0.961742784,1,H,20,NAN,9,18
2,2,NAN,0,NAN,NAN,NAN,NAN,NAN,NAN,NAN,NAN,NAN,NAN,0,H,20,NAN,9,19
2,2,2.0,2,0.923828125,1.0,4.0,1.0,3.0,817.8710938,105.9570313,0.193359375,I I I C,1.291742725,1,H,20,NAN,9,20
2,1,1.0,3,1.098144531,1.0,2.0,2.0,0.0,1001.953125,96.19140625,0.860351563,C C,1.078055409,1,H,20,NAN,9,21
2,2,2.0,3,0.814941406,1.0,1.0,1.0,0.0,714.84375,100.0976563,0.71484375,C,1.399205206,1,H,20,NAN,9,22
2,1,1.0,4,0.633789063,1.0,1.0,1.0,0.0,540.5273438,93.26171875,0.540527344,C,0.933392935,1,H,20,NAN,9,23
2,2,2.0,4,0.500976563,1.0,1.0,1.0,0.0,432.1289063,68.84765625,0.432128906,C,1.491905189,1,H,20,NAN,9,24
2,2,2.0,1,0.637207031,1.0,1.0,1.0,0.0,534.6679688,102.5390625,0.534667969,C,1.074055264,1,H,20,NAN,9,25
2,2,1.0,1,0.579101563,0.0,1.0,0.0,1.0,462.890625,116.2109375,0.462890625,I,0.865042947,1,H,20,NAN,9,26
2,2,2.0,1,0.917480469,1.0,1.0,1.0,0.0,725.5859375,191.8945313,0.725585938,C,0.8714428,1,H,20,NAN,9,27
2,2,1.0,1,1.106933594,0.0,1.0,0.0,1.0,923.828125,183.1054688,0.923828125,I,0.892905442,1,H,20,NAN,9,28
2,1,1.0,2,1.059082031,1.0,1.0,1.0,0.0,923.3398438,135.7421875,0.923339844,C,1.027392918,1,H,20,NAN,9,29
2,1,2.0,4,0.857421875,0.0,1.0,0.0,1.0,757.3242188,100.0976563,0.757324219,I,1.26271773,1,H,20,NAN,9,30
2,1,NAN,0,NAN,NAN,NAN,NAN,NAN,NAN,NAN,NAN,NAN,NAN,0,H,20,NAN,9,31
2,2,2.0,1,0.645996094,1.0,1.0,1.0,0.0,530.2734375,115.7226563,0.530273438,C,1.360517713,1,H,20,NAN,9,32
2,2,2.0,1,0.861328125,1.0,1.0,1.0,0.0,765.1367188,96.19140625,0.765136719,C,1.307755222,1,H,20,NAN,9,33
2,2,2.0,2,0.822265625,1.0,1.0,1.0,0.0,700.6835938,121.5820313,0.700683594,C,1.032230272,1,H,20,NAN,9,34
2,2,2.0,1,0.829101563,1.0,1.0,1.0,0.0,735.3515625,93.75,0.735351563,C,1.185642744,1,H,20,NAN,9,35
2,2,1.0,3,0.877929688,0.0,1.0,0.0,1.0,752.9296875,125.0,0.752929688,I,1.148767896,1,H,20,NAN,9,36
2,2,2.0,3,0.672851563,1.0,1.0,1.0,0.0,594.2382813,78.61328125,0.594238281,C,1.197992742,1,H,20,NAN,9,37
2,2,2.0,2,0.787109375,1.0,1.0,1.0,0.0,719.2382813,67.87109375,0.719238281,C,1.569242675,1,H,20,NAN,9,38
2,2,2.0,1,1.110839844,1.0,1.0,1.0,0.0,1026.367188,84.47265625,1.026367188,C,1.221305238,1,H,20,NAN,9,39
2,1,1.0,4,0.501464844,1.0,1.0,1.0,0.0,394.53125,106.9335938,0.39453125,C,0.883092944,1,H,20,NAN,9,40
2,2,1.0,2,0.435546875,0.0,1.0,0.0,1.0,311.5234375,124.0234375,0.311523438,I,1.144492897,1,H,20,NAN,9,41
2,1,2.0,1,0.759765625,0.0,1.0,0.0,1.0,660.15625,99.609375,0.66015625,I,1.068030265,1,H,20,NAN,9,42
2,1,1.0,1,1.484863281,1.0,3.0,2.0,1.0,1399.414063,85.44921875,1.309570313,C I C,NAN,1,H,20,NAN,9,43
2,1,1.0,4,0.530273438,1.0,1.0,1.0,0.0,411.1328125,119.140625,0.411132813,C,1.132480399,1,H,20,NAN,9,44
2,2,2.0,4,0.628417969,1.0,1.0,0.0,1.0,NAN,NAN,NAN,C,1.585055173,0,H,20,NAN,9,45
2,1,2.0,0,0.458007813,0.0,1.0,0.0,1.0,361.8164063,96.19140625,0.361816406,I,1.124617755,1,H,20,NAN,9,46
2,2,2.0,2,0.954101563,1.0,1.0,1.0,0.0,829.1015625,125.0,0.829101563,C,1.060055267,1,H,20,NAN,9,47
2,2,2.0,2,0.960449219,1.0,1.0,1.0,0.0,856.4453125,104.0039063,0.856445313,C,1.286480226,1,H,20,NAN,9,48
2,1,2.0,1,0.784179688,0.0,1.0,0.0,1.0,680.1757813,104.0039063,0.680175781,I,1.235105235,1,H,20,NAN,9,49
2,2,2.0,4,0.969726563,1.0,1.0,1.0,0.0,868.6523438,101.0742188,0.868652344,C,1.136130253,1,H,20,NAN,9,50
2,2,1.0,4,0.692871094,0.0,1.0,0.0,1.0,588.3789063,104.4921875,0.588378906,I,1.101417905,1,H,20,NAN,9,51
2,1,1.0,3,0.760742188,1.0,1.0,1.0,0.0,607.421875,153.3203125,0.607421875,C,1.050805414,1,H,20,NAN,9,52
2,2,2.0,4,0.613769531,1.0,NAN,NAN,NAN,NAN,NAN,NAN,NAN,NAN,0,H,20,NAN,9,53
2,2,2.0,1,0.87109375,1.0,NAN,NAN,NAN,NAN,NAN,NAN,NAN,NAN,0,H,20,NAN,9,54
2,1,1.0,4,1.216308594,1.0,3.0,3.0,0.0,1051.269531,165.0390625,0.513183594,C C C,1.326867865,1,H,20,NAN,9,55
2,1,2.0,2,0.905273438,0.0,NAN,NAN,NAN,NAN,NAN,NAN,NAN,NAN,0,H,20,NAN,9,56
2,1,2.0,1,0.768066406,0.0,NAN,NAN,NAN,NAN,NAN,NAN,NAN,NAN,0,H,20,NAN,9,57
2,2,2.0,1,0.8203125,1.0,NAN,NAN,NAN,NAN,NAN,NAN,NAN,NAN,0,H,20,NAN,9,58
2,1,1.0,3,0.62109375,1.0,1.0,1.0,0.0,500.0,121.09375,0.5,C,0.930417935,1,H,20,NAN,9,59
2,2,1.0,1,1.241210938,0.0,1.0,0.0,1.0,1061.035156,180.1757813,1.061035156,I,0.943217933,1,H,20,NAN,9,60
2,1,2.0,1,1.163574219,0.0,1.0,1.0,0.0,NAN,NAN,NAN,I,2.017392595,0,H,20,NAN,9,61
2,1,1.0,4,0.706542969,1.0,1.0,1.0,0.0,563.9648438,142.578125,0.563964844,C,1.088467907,1,H,20,NAN,9,62
2,1,1.0,2,0.910644531,1.0,1.0,1.0,0.0,796.3867188,114.2578125,0.796386719,C,1.252855378,1,H,20,NAN,9,63
2,2,1.0,3,0.680664063,0.0,1.0,0.0,1.0,544.921875,135.7421875,0.544921875,I,1.150855396,1,H,20,NAN,9,64
2,2,2.0,3,0.581542969,1.0,1.0,1.0,0.0,507.8125,73.73046875,0.5078125,C,1.634380164,1,H,20,NAN,9,65
2,1,1.0,4,0.706054688,1.0,1.0,1.0,0.0,624.5117188,81.54296875,0.624511719,C,1.180330391,1,H,20,NAN,9,66
2,1,1.0,4,0.4921875,1.0,1.0,1.0,0.0,398.9257813,93.26171875,0.398925781,C,1.094255406,1,H,20,NAN,9,67
2,1,1.0,4,0.564941406,1.0,1.0,1.0,0.0,447.265625,117.6757813,0.447265625,C,1.146917897,1,H,20,NAN,9,68
2,2,1.0,1,0.770507813,0.0,1.0,0.0,1.0,628.4179688,142.0898438,0.628417969,I,1.158105395,1,H,20,NAN,9,69
2,1,2.0,1,0.94921875,0.0,1.0,0.0,1.0,849.1210938,100.0976563,0.849121094,I,1.49015519,1,H,20,NAN,9,70
2,2,2.0,4,0.618164063,1.0,1.0,1.0,0.0,570.8007813,47.36328125,0.570800781,C,2.932454932,1,H,20,NAN,10,1
2,2,2.0,4,0.4609375,1.0,1.0,1.0,0.0,395.9960938,64.94140625,0.395996094,C,1.4310427,1,H,20,NAN,10,2
2,1,1.0,4,0.402832031,1.0,1.0,1.0,0.0,318.8476563,83.984375,0.318847656,C,1.166242893,1,H,20,NAN,10,3
2,1,1.0,4,0.564453125,1.0,2.0,2.0,0.0,474.1210938,90.33203125,0.287109375,C C,1.412392849,1,H,20,NAN,10,4
2,1,2.0,4,0.423828125,0.0,1.0,0.0,1.0,361.328125,62.5,0.361328125,I,1.660067659,1,H,20,NAN,10,5
2,1,1.0,3,0.816894531,1.0,3.0,2.0,1.0,719.2382813,97.65625,0.298828125,C I C,1.205280386,1,H,20,NAN,10,6
2,1,1.0,4,0.497070313,1.0,1.0,1.0,0.0,379.3945313,117.6757813,0.379394531,C,1.025880418,1,H,20,NAN,10,7
2,2,1.0,4,0.798339844,0.0,2.0,0.0,2.0,714.3554688,83.984375,0.413085938,I I,1.233767881,1,H,20,NAN,10,8
2,1,1.0,4,0.47265625,1.0,1.0,1.0,0.0,388.671875,83.984375,0.388671875,C,1.346680361,1,H,20,NAN,10,9
2,1,1.0,2,0.721679688,1.0,2.0,1.0,1.0,623.046875,98.6328125,0.416503906,I C,1.217092884,1,H,20,NAN,10,10
2,1,1.0,2,0.633300781,1.0,1.0,1.0,0.0,527.8320313,105.46875,0.527832031,C,1.01680542,1,H,20,NAN,10,11
2,1,2.0,1,1.063964844,0.0,1.0,0.0,1.0,978.515625,85.44921875,0.978515625,I,1.37544271,1,H,20,NAN,10,12
2,1,2.0,2,0.958007813,0.0,1.0,0.0,1.0,860.3515625,97.65625,0.860351563,I,1.157542749,1,H,20,NAN,10,13
2,2,2.0,1,0.836425781,1.0,1.0,1.0,0.0,727.0507813,109.375,0.727050781,C,1.296605224,1,H,20,NAN,10,14
2,2,1.0,2,1.420410156,0.0,1.0,0.0,1.0,1296.875,123.5351563,1.296875,I,1.035455417,1,H,20,NAN,10,15
2,1,NAN,0,NAN,NAN,NAN,NAN,NAN,NAN,NAN,NAN,NAN,NAN,0,H,20,NAN,10,16
2,2,2.0,2,0.610351563,1.0,1.0,1.0,0.0,545.4101563,64.94140625,0.545410156,C,1.630005165,1,H,20,NAN,10,17
2,2,1.0,1,0.935546875,0.0,3.0,1.0,2.0,814.9414063,120.6054688,0.435546875,C I I,1.291742871,1,H,20,NAN,10,18
2,2,2.0,3,1.041015625,1.0,2.0,2.0,0.0,961.4257813,79.58984375,0.694335938,C C,1.006255276,1,H,20,NAN,10,19
2,1,1.0,1,0.829101563,1.0,1.0,1.0,0.0,724.609375,104.4921875,0.724609375,C,0.901342941,1,H,20,NAN,10,20
2,2,NAN,0,NAN,NAN,NAN,NAN,NAN,NAN,NAN,NAN,NAN,NAN,0,H,20,NAN,10,21
2,1,1.0,2,0.662597656,1.0,1.0,1.0,0.0,602.0507813,60.546875,0.602050781,C,1.570567821,1,H,20,NAN,10,22
2,2,2.0,3,0.725097656,1.0,1.0,0.0,1.0,NAN,NAN,NAN,C,1.482530191,0,H,20,NAN,10,23
2,1,1.0,2,0.943847656,1.0,1.0,1.0,0.0,842.2851563,101.5625,0.842285156,C,1.284342872,1,H,20,NAN,10,24
2,2,1.0,2,0.63671875,0.0,1.0,0.0,1.0,553.7109375,83.0078125,0.553710938,I,1.361830358,1,H,20,NAN,10,25
2,1,1.0,1,0.699707031,1.0,1.0,1.0,0.0,613.7695313,85.9375,0.613769531,C,1.124142901,1,H,20,NAN,10,26
2,2,1.0,2,0.713867188,0.0,1.0,0.0,1.0,613.28125,100.5859375,0.61328125,I,1.144780397,1,H,20,NAN,10,27
2,2,1.0,1,0.821289063,0.0,1.0,0.0,1.0,722.65625,98.6328125,0.72265625,I,1.07221791,1,H,20,NAN,10,28
2,1,NAN,0,NAN,NAN,NAN,NAN,NAN,NAN,NAN,NAN,NAN,NAN,0,H,20,NAN,10,29
2,1,1.0,3,1.000488281,1.0,1.0,1.0,0.0,913.5742188,86.9140625,0.913574219,C,1.441092844,1,H,20,NAN,10,30
2,1,2.0,1,1.124511719,0.0,2.0,0.0,2.0,1054.6875,69.82421875,0.818359375,I I,2.001667598,1,H,20,NAN,10,31
2,1,1.0,2,1.480957031,1.0,3.0,3.0,0.0,1344.238281,136.71875,1.055175781,C C C,NAN,1,H,20,NAN,10,32
2,2,2.0,1,1.383300781,1.0,2.0,2.0,0.0,1255.859375,127.4414063,0.992675781,C C,1.076692764,1,H,20,NAN,10,33
2,2,2.0,4,0.783203125,1.0,1.0,1.0,0.0,656.25,126.953125,0.65625,C,0.968930283,1,H,20,NAN,10,34
2,1,NAN,0,NAN,NAN,NAN,NAN,NAN,NAN,NAN,NAN,NAN,NAN,0,H,20,NAN,10,35
2,1,2.0,2,0.606445313,0.0,1.0,0.0,1.0,536.1328125,70.3125,0.536132813,I,1.87720512,1,H,20,NAN,10,36
2,2,2.0,1,0.977539063,1.0,1.0,1.0,0.0,907.7148438,69.82421875,0.907714844,C,1.745217644,1,H,20,NAN,10,37
2,1,1.0,2,1.133300781,1.0,1.0,1.0,0.0,1029.296875,104.0039063,1.029296875,C,1.209430386,1,H,20,NAN,10,38
2,2,1.0,2,1.249511719,0.0,1.0,0.0,1.0,1122.070313,127.4414063,1.122070313,I,0.913842938,1,H,20,NAN,10,39
2,2,NAN,0,NAN,NAN,NAN,NAN,NAN,NAN,NAN,NAN,NAN,NAN,0,H,20,NAN,10,40
2,1,2.0,1,0.490234375,0.0,1.0,0.0,1.0,409.6679688,80.56640625,0.409667969,I,2.088505083,1,H,20,NAN,10,41
2,1,2.0,1,0.544433594,0.0,1.0,0.0,1.0,479.9804688,64.453125,0.479980469,I,1.831317629,1,H,20,NAN,10,42
2,2,2.0,2,1.076660156,1.0,1.0,1.0,0.0,1011.230469,65.4296875,1.011230469,C,2.096367581,1,H,20,NAN,10,43
2,1,2.0,4,0.857421875,0.0,1.0,0.0,1.0,786.1328125,71.2890625,0.786132813,I,1.814455132,1,H,20,NAN,10,44
2,2,1.0,2,1.135742188,0.0,1.0,0.0,1.0,1040.527344,95.21484375,1.040527344,I,1.460892841,1,H,20,NAN,10,45
2,1,1.0,4,0.865722656,1.0,1.0,1.0,0.0,693.359375,172.3632813,0.693359375,C,1.336942863,1,H,20,NAN,10,46
2,1,2.0,1,0.818847656,0.0,1.0,0.0,1.0,706.0546875,112.7929688,0.706054688,I,1.055292767,1,H,20,NAN,10,47
2,1,2.0,1,0.682617188,0.0,1.0,0.0,1.0,623.5351563,59.08203125,0.623535156,I,1.839055127,1,H,20,NAN,10,48
2,2,2.0,2,0.534179688,1.0,1.0,1.0,0.0,469.2382813,64.94140625,0.469238281,C,1.883905119,1,H,20,NAN,10,49
2,1,1.0,3,1.028808594,1.0,1.0,1.0,0.0,944.3359375,84.47265625,0.944335938,C,1.089480407,1,H,20,NAN,10,50
2,2,2.0,1,0.754394531,1.0,1.0,1.0,0.0,683.59375,70.80078125,0.68359375,C,1.675930156,1,H,20,NAN,10,51
2,2,2.0,2,0.864746094,1.0,1.0,1.0,0.0,787.5976563,77.1484375,0.787597656,C,1.471642693,1,H,20,NAN,10,52
2,2,1.0,3,0.982421875,0.0,1.0,0.0,1.0,824.21875,158.203125,0.82421875,I,0.833167953,1,H,20,NAN,10,53
2,1,1.0,4,0.638183594,1.0,1.0,1.0,0.0,570.8007813,67.3828125,0.570800781,C,1.399680352,1,H,20,NAN,10,54
2,2,2.0,1,0.726074219,1.0,1.0,1.0,0.0,645.5078125,80.56640625,0.645507813,C,1.259767731,1,H,20,NAN,10,55
2,2,1.0,4,0.511230469,0.0,1.0,0.0,1.0,427.734375,83.49609375,0.427734375,I,1.137867898,1,H,20,NAN,10,56
2,2,1.0,1,0.969726563,0.0,1.0,0.0,1.0,876.953125,92.7734375,0.876953125,I,1.423367847,1,H,20,NAN,10,57
2,1,1.0,4,0.658203125,1.0,1.0,1.0,0.0,583.0078125,75.1953125,0.583007813,C,1.112092903,1,H,20,NAN,10,58
2,1,1.0,1,0.576660156,1.0,1.0,1.0,0.0,487.3046875,89.35546875,0.487304688,C,1.167792893,1,H,20,NAN,10,59
2,1,1.0,2,1.157226563,1.0,2.0,2.0,0.0,1004.394531,152.8320313,0.718261719,C C,1.245655379,1,H,20,NAN,10,60
2,2,2.0,4,0.821777344,1.0,1.0,1.0,0.0,734.8632813,86.9140625,0.734863281,C,1.116305256,1,H,20,NAN,10,61
2,1,2.0,3,0.782226563,0.0,1.0,0.0,1.0,676.2695313,105.9570313,0.676269531,I,1.570605175,1,H,20,NAN,10,62
2,2,2.0,1,1.137695313,1.0,1.0,1.0,0.0,810.546875,327.1484375,0.810546875,C,0.919692792,1,H,20,NAN,10,63
2,1,1.0,1,1.237304688,1.0,1.0,1.0,0.0,1159.179688,78.125,1.159179688,C,1.213605385,1,H,20,NAN,10,64
2,1,2.0,1,1.021484375,0.0,2.0,0.0,2.0,941.40625,80.078125,0.796386719,I I,1.15286775,1,H,20,NAN,10,65
2,2,1.0,1,1.43359375,0.0,2.0,0.0,2.0,1285.15625,148.4375,0.600585938,I I,NAN,1,H,20,NAN,10,66
2,2,2.0,4,0.896484375,1.0,1.0,1.0,0.0,822.7539063,73.73046875,0.822753906,C,1.684092655,1,H,20,NAN,10,67
2,2,2.0,3,0.932617188,1.0,1.0,1.0,0.0,855.46875,77.1484375,0.85546875,C,1.328055219,1,H,20,NAN,10,68
2,1,1.0,4,0.811523438,1.0,1.0,1.0,0.0,721.6796875,89.84375,0.721679688,C,1.156205395,1,H,20,NAN,10,69
2,2,2.0,2,0.708984375,1.0,1.0,1.0,0.0,614.7460938,94.23828125,0.614746094,C,1.020755274,1,H,20,NAN,10,70
3,1,1.0,1,0.463867188,1.0,1.0,1.0,0.0,328.125,135.7421875,0.328125,C,1.060855412,1,H,21,NAN,6,1
3,2,2.0,2,0.407714844,1.0,2.0,1.0,1.0,328.6132813,79.1015625,0.262695313,I C,1.225767737,1,H,21,NAN,6,2
3,2,2.0,3,0.405761719,1.0,2.0,1.0,1.0,313.4765625,92.28515625,0.2265625,I C,1.091742761,1,H,21,NAN,6,3
3,2,2.0,4,0.442871094,1.0,1.0,1.0,0.0,337.890625,104.9804688,0.337890625,C,1.089555261,1,H,21,NAN,6,4
3,2,2.0,4,0.350097656,1.0,1.0,1.0,0.0,257.3242188,92.7734375,0.257324219,C,1.156805249,1,H,21,NAN,6,5
3,2,2.0,4,0.612792969,1.0,1.0,1.0,0.0,289.5507813,323.2421875,0.289550781,C,1.464955194,1,H,21,NAN,6,6
3,2,2.0,3,0.364257813,1.0,2.0,1.0,1.0,301.2695313,62.98828125,0.198730469,I C,1.642942662,1,H,21,NAN,6,7
3,2,2.0,4,0.344726563,1.0,1.0,1.0,0.0,267.0898438,77.63671875,0.267089844,C,1.523880184,1,H,21,NAN,6,8
3,2,2.0,3,0.348632813,1.0,1.0,1.0,0.0,268.0664063,80.56640625,0.268066406,C,1.428280201,1,H,21,NAN,6,9
3,2,2.0,2,0.326660156,1.0,1.0,1.0,0.0,247.0703125,79.58984375,0.247070313,C,1.355492714,1,H,21,NAN,6,10
3,2,2.0,4,0.357910156,1.0,1.0,1.0,0.0,281.25,76.66015625,0.28125,C,1.390230207,1,H,21,NAN,6,11
3,1,1.0,2,0.408691406,1.0,1.0,1.0,0.0,310.546875,98.14453125,0.310546875,C,1.032567917,1,H,21,NAN,6,12
3,1,1.0,3,0.427734375,1.0,2.0,2.0,0.0,340.8203125,86.9140625,0.250488281,C C,1.132317899,1,H,21,NAN,6,13
3,2,2.0,3,0.393066406,1.0,2.0,1.0,1.0,315.4296875,77.63671875,0.197753906,I C,1.447180197,1,H,21,NAN,6,14
3,2,2.0,3,0.428222656,1.0,2.0,1.0,1.0,337.4023438,90.8203125,0.258300781,I C,1.270630229,1,H,21,NAN,6,15
3,2,2.0,4,0.698242188,1.0,3.0,2.0,1.0,600.5859375,97.65625,0.300292969,I C C,1.558792677,1,H,21,NAN,6,16
3,1,1.0,4,0.433105469,1.0,1.0,1.0,0.0,348.1445313,84.9609375,0.348144531,C,0.953917931,1,H,21,NAN,6,17
3,2,2.0,2,0.487304688,1.0,1.0,1.0,0.0,421.3867188,65.91796875,0.421386719,C,1.498080188,1,H,21,NAN,6,18
3,2,2.0,4,0.358886719,1.0,1.0,1.0,0.0,277.34375,81.54296875,0.27734375,C,1.276817728,1,H,21,NAN,6,19
3,1,1.0,4,0.427734375,1.0,2.0,1.0,1.0,312.0117188,115.7226563,0.221679688,I C,0.826630454,1,H,21,NAN,6,20
3,2,2.0,4,0.431152344,1.0,1.0,1.0,0.0,350.5859375,80.56640625,0.350585938,C,1.298630224,1,H,21,NAN,6,21
3,1,1.0,4,0.409667969,1.0,1.0,1.0,0.0,281.7382813,127.9296875,0.281738281,C,0.893642942,1,H,21,NAN,6,22
3,1,1.0,3,0.454101563,1.0,1.0,1.0,0.0,335.4492188,118.6523438,0.335449219,C,0.96204293,1,H,21,NAN,6,23
3,2,2.0,4,0.440429688,1.0,1.0,1.0,0.0,343.2617188,97.16796875,0.343261719,C,1.126092755,1,H,21,NAN,6,24
3,2,2.0,4,0.666992188,1.0,2.0,2.0,0.0,604.9804688,62.01171875,0.341308594,C C,1.641080163,1,H,21,NAN,6,25
3,1,1.0,3,0.434570313,1.0,2.0,1.0,1.0,352.0507813,82.51953125,0.282714844,I C,0.995255424,1,H,21,NAN,6,26
3,2,2.0,4,0.407226563,1.0,1.0,1.0,0.0,322.265625,84.9609375,0.322265625,C,1.459980195,1,H,21,NAN,6,27
3,1,1.0,3,0.45703125,1.0,1.0,1.0,0.0,357.421875,99.609375,0.357421875,C,0.870205446,1,H,21,NAN,6,28
3,2,2.0,3,0.383789063,1.0,1.0,1.0,0.0,303.7109375,80.078125,0.303710938,C,1.37549271,1,H,21,NAN,6,29
3,2,1.0,0,0.401367188,0.0,1.0,0.0,1.0,276.8554688,124.5117188,0.276855469,I,0.816155456,1,H,21,NAN,6,30
3,1,1.0,2,0.493652344,1.0,1.0,1.0,0.0,382.8125,110.8398438,0.3828125,C,0.888580443,1,H,21,NAN,6,31
3,1,1.0,3,0.37109375,1.0,1.0,1.0,0.0,266.1132813,104.9804688,0.266113281,C,0.900942941,1,H,21,NAN,6,32
3,1,1.0,3,0.453613281,1.0,1.0,1.0,0.0,292.4804688,161.1328125,0.292480469,C,0.940567934,1,H,21,NAN,6,33
3,1,1.0,3,0.345214844,1.0,1.0,1.0,0.0,200.6835938,144.53125,0.200683594,C,0.983567926,1,H,21,NAN,6,34
3,1,1.0,4,0.386230469,1.0,1.0,1.0,0.0,192.8710938,193.359375,0.192871094,C,0.830542953,1,H,21,NAN,6,35
3,1,1.0,2,0.43359375,1.0,1.0,1.0,0.0,316.40625,117.1875,0.31640625,C,0.972430428,1,H,21,NAN,6,36
3,2,2.0,3,0.440917969,1.0,2.0,1.0,1.0,354.0039063,86.9140625,0.265136719,I C,1.37388021,1,H,21,NAN,6,37
3,2,2.0,4,0.393066406,1.0,1.0,1.0,0.0,309.5703125,83.49609375,0.309570313,C,1.32116772,1,H,21,NAN,6,38
3,2,2.0,4,0.33203125,1.0,1.0,1.0,0.0,253.4179688,78.61328125,0.253417969,C,1.476642692,1,H,21,NAN,6,39
3,2,2.0,4,0.365234375,1.0,2.0,1.0,1.0,288.5742188,76.66015625,0.245605469,I C,1.302855223,1,H,21,NAN,6,40
3,1,1.0,3,0.629394531,1.0,4.0,2.0,2.0,550.78125,78.61328125,0.330078125,I C I C,1.177530391,1,H,21,NAN,6,41
3,2,2.0,3,0.462402344,1.0,1.0,1.0,0.0,367.6757813,94.7265625,0.367675781,C,1.09430526,1,H,21,NAN,6,42
3,1,1.0,3,0.606445313,1.0,3.0,3.0,0.0,492.1875,114.2578125,0.132324219,C C C,1.031242917,1,H,21,NAN,6,43
3,2,2.0,2,0.461425781,1.0,2.0,1.0,1.0,368.1640625,93.26171875,0.270996094,I C,1.140942752,1,H,21,NAN,6,44
3,1,1.0,2,0.604003906,1.0,2.0,2.0,0.0,527.34375,76.66015625,0.271972656,C C,1.171192892,1,H,21,NAN,6,45
3,2,2.0,3,0.430664063,1.0,1.0,1.0,0.0,325.1953125,105.46875,0.325195313,C,1.089955261,1,H,21,NAN,6,46
3,2,2.0,3,0.656738281,1.0,2.0,1.0,1.0,300.2929688,356.4453125,0.165039063,I C,1.260892731,1,H,21,NAN,6,47
3,2,2.0,2,0.425292969,1.0,2.0,1.0,1.0,336.9140625,88.37890625,0.239746094,I C,1.331992718,1,H,21,NAN,6,48
3,2,2.0,1,0.388671875,1.0,NAN,NAN,NAN,NAN,NAN,NAN,NAN,NAN,0,H,21,NAN,6,49
3,2,2.0,2,0.407714844,1.0,NAN,NAN,NAN,NAN,NAN,NAN,NAN,NAN,0,H,21,NAN,6,50
3,2,2.0,3,0.3828125,1.0,1.0,1.0,0.0,276.8554688,105.9570313,0.276855469,C,1.232180236,1,H,21,NAN,6,51
3,2,2.0,4,0.352050781,1.0,1.0,1.0,0.0,250.0,102.0507813,0.25,C,1.145967751,1,H,21,NAN,6,52
3,1,1.0,3,0.386230469,1.0,NAN,NAN,NAN,NAN,NAN,NAN,NAN,NAN,0,H,21,NAN,6,53
3,1,1.0,4,0.376464844,1.0,NAN,NAN,NAN,NAN,NAN,NAN,NAN,NAN,0,H,21,NAN,6,54
3,2,2.0,4,0.372070313,1.0,1.0,1.0,0.0,260.2539063,111.8164063,0.260253906,C,1.113680257,1,H,21,NAN,6,55
3,2,2.0,3,0.66796875,1.0,2.0,2.0,0.0,571.2890625,96.6796875,0.288574219,C C,1.641692663,1,H,21,NAN,6,56
3,2,2.0,3,0.358398438,1.0,1.0,1.0,0.0,263.1835938,95.21484375,0.263183594,C,1.183980244,1,H,21,NAN,6,57
3,2,2.0,3,0.516601563,1.0,1.0,1.0,0.0,239.2578125,277.34375,0.239257813,C,1.458430195,1,H,21,NAN,6,58
3,1,1.0,3,0.39453125,1.0,1.0,1.0,0.0,296.3867188,98.14453125,0.296386719,C,1.033092917,1,H,21,NAN,6,59
3,2,2.0,3,0.399414063,1.0,2.0,1.0,1.0,304.1992188,95.21484375,0.100097656,I C,1.253392732,1,H,21,NAN,6,60
3,2,2.0,4,0.346679688,1.0,1.0,1.0,0.0,260.2539063,86.42578125,0.260253906,C,1.503417687,1,H,21,NAN,6,61
3,1,1.0,4,0.381835938,1.0,1.0,1.0,0.0,285.15625,96.6796875,0.28515625,C,1.008017922,1,H,21,NAN,6,62
3,1,1.0,4,0.362304688,1.0,1.0,1.0,0.0,274.4140625,87.890625,0.274414063,C,1.065392911,1,H,21,NAN,6,63
3,1,1.0,4,0.382324219,1.0,1.0,1.0,0.0,269.0429688,113.28125,0.269042969,C,1.01914292,1,H,21,NAN,6,64
3,1,1.0,4,0.32421875,1.0,1.0,1.0,0.0,164.5507813,159.6679688,0.164550781,C,0.979142927,1,H,21,NAN,6,65
3,2,1.0,4,0.265136719,0.0,1.0,0.0,1.0,162.109375,103.0273438,0.162109375,I,0.998192923,1,H,21,NAN,6,66
3,2,1.0,0,0.354003906,0.0,1.0,0.0,1.0,261.2304688,92.7734375,0.261230469,I,1.138530398,1,H,21,NAN,6,67
3,2,2.0,4,0.369140625,1.0,1.0,1.0,0.0,275.390625,93.75,0.275390625,C,1.217992738,1,H,21,NAN,6,68
3,2,2.0,4,0.344238281,1.0,1.0,1.0,0.0,232.421875,111.8164063,0.232421875,C,1.091330261,1,H,21,NAN,6,69
3,2,2.0,3,0.321289063,1.0,1.0,1.0,0.0,202.1484375,119.140625,0.202148438,C,1.303555223,1,H,21,NAN,6,70
3,1,2.0,1,0.439941406,0.0,1.0,0.0,1.0,354.0039063,85.9375,0.354003906,I,1.447180197,1,H,21,NAN,7,1
3,1,1.0,3,0.368164063,1.0,1.0,1.0,0.0,274.4140625,93.75,0.274414063,C,1.064442911,1,H,21,NAN,7,2
3,1,1.0,4,0.38671875,1.0,1.0,1.0,0.0,231.9335938,154.7851563,0.231933594,C,1.142480398,1,H,21,NAN,7,3
3,2,2.0,4,0.455566406,1.0,2.0,1.0,1.0,367.6757813,87.890625,0.185058594,I C,1.373417711,1,H,21,NAN,7,4
3,2,2.0,4,0.341796875,1.0,1.0,1.0,0.0,257.8125,83.984375,0.2578125,C,1.389817708,1,H,21,NAN,7,5
3,2,2.0,4,0.342285156,1.0,1.0,1.0,0.0,254.3945313,87.890625,0.254394531,C,1.304542723,1,H,21,NAN,7,6
3,2,2.0,4,0.366699219,1.0,2.0,1.0,1.0,273.9257813,92.7734375,0.18359375,I C,1.231605236,1,H,21,NAN,7,7
3,1,1.0,4,0.528320313,1.0,2.0,1.0,1.0,456.0546875,72.265625,0.231445313,I C,1.203692887,1,H,21,NAN,7,8
3,2,2.0,1,0.712402344,1.0,2.0,1.0,1.0,395.5078125,316.8945313,0.353515625,I C,1.393792707,1,H,21,NAN,7,9
3,1,1.0,2,0.376464844,1.0,1.0,1.0,0.0,280.2734375,96.19140625,0.280273438,C,1.119305402,1,H,21,NAN,7,10
3,2,2.0,3,0.404296875,1.0,1.0,1.0,0.0,305.1757813,99.12109375,0.305175781,C,1.176305246,1,H,21,NAN,7,11
3,2,2.0,3,0.459472656,1.0,2.0,1.0,1.0,331.0546875,128.4179688,0.260742188,I C,1.091930261,1,H,21,NAN,7,12
3,1,1.0,2,0.427734375,1.0,1.0,1.0,0.0,291.9921875,135.7421875,0.291992188,C,0.818067956,1,H,21,NAN,7,13
3,1,1.0,2,0.404785156,1.0,1.0,1.0,0.0,290.0390625,114.7460938,0.290039063,C,0.944942933,1,H,21,NAN,7,14
3,2,2.0,3,0.437011719,1.0,2.0,1.0,1.0,319.3359375,117.6757813,0.208007813,I C,1.091705261,1,H,21,NAN,7,15
3,1,1.0,3,0.663085938,1.0,2.0,2.0,0.0,563.4765625,99.609375,0.328613281,C C,1.1262179,1,H,21,NAN,7,16
3,2,1.0,0,0.365722656,0.0,1.0,0.0,1.0,227.0507813,138.671875,0.227050781,I,0.883105444,1,H,21,NAN,7,17
3,2,2.0,3,0.350097656,1.0,NAN,NAN,NAN,NAN,NAN,NAN,NAN,NAN,0,H,21,NAN,7,18
3,2,2.0,4,0.574707031,1.0,4.0,2.0,2.0,477.0507813,97.65625,0.176757813,I C C,1.198017742,1,H,21,NAN,7,19
3,2,2.0,4,0.334960938,1.0,1.0,1.0,0.0,250.9765625,83.984375,0.250976563,C,1.455167696,1,H,21,NAN,7,20
3,1,2.0,0,0.387207031,0.0,1.0,0.0,1.0,292.96875,94.23828125,0.29296875,I,1.125380255,1,H,21,NAN,7,21
3,2,2.0,4,0.408691406,1.0,1.0,1.0,0.0,333.984375,74.70703125,0.333984375,C,1.312505221,1,H,21,NAN,7,22
3,1,1.0,2,0.410644531,1.0,1.0,1.0,0.0,288.5742188,122.0703125,0.288574219,C,1.035567917,1,H,21,NAN,7,23
3,2,2.0,2,0.385742188,1.0,2.0,1.0,1.0,292.4804688,93.26171875,0.237304688,I C,1.187567744,1,H,21,NAN,7,24
3,1,1.0,2,0.328613281,1.0,1.0,1.0,0.0,217.2851563,111.328125,0.217285156,C,1.197455388,1,H,21,NAN,7,25
3,1,1.0,3,0.424804688,1.0,1.0,1.0,0.0,327.6367188,97.16796875,0.327636719,C,1.210955385,1,H,21,NAN,7,26
3,2,1.0,1,0.416015625,0.0,1.0,0.0,1.0,275.8789063,140.1367188,0.275878906,I,1.123730401,1,H,21,NAN,7,27
3,1,1.0,3,0.372070313,1.0,1.0,1.0,0.0,283.6914063,88.37890625,0.283691406,C,1.076955409,1,H,21,NAN,7,28
3,1,1.0,2,0.3828125,1.0,1.0,1.0,0.0,292.4804688,90.33203125,0.292480469,C,1.163142894,1,H,21,NAN,7,29
3,1,1.0,2,0.382324219,1.0,1.0,1.0,0.0,248.5351563,133.7890625,0.248535156,C,0.887367943,1,H,21,NAN,7,30
3,2,2.0,1,0.479492188,1.0,2.0,1.0,1.0,391.1132813,88.37890625,0.274414063,I C,1.198842742,1,H,21,NAN,7,31
3,1,1.0,2,0.384765625,1.0,1.0,1.0,0.0,245.6054688,139.1601563,0.245605469,C,1.053680413,1,H,21,NAN,7,32
3,1,1.0,3,0.422851563,1.0,1.0,1.0,0.0,280.2734375,142.578125,0.280273438,C,1.01721792,1,H,21,NAN,7,33
3,2,1.0,0,0.357421875,0.0,1.0,0.0,1.0,236.328125,121.09375,0.236328125,I,0.914192938,1,H,21,NAN,7,34
3,2,2.0,4,0.374023438,1.0,1.0,1.0,0.0,285.15625,88.8671875,0.28515625,C,1.238205235,1,H,21,NAN,7,35
3,1,1.0,3,0.354980469,1.0,1.0,1.0,0.0,250.4882813,104.4921875,0.250488281,C,0.90659294,1,H,21,NAN,7,36
3,2,2.0,4,0.374023438,1.0,1.0,1.0,0.0,292.4804688,81.54296875,0.292480469,C,1.280892727,1,H,21,NAN,7,37
3,2,2.0,3,0.439453125,1.0,3.0,1.0,2.0,339.84375,99.609375,0.194335938,I I C,1.130180254,1,H,21,NAN,7,38
3,2,2.0,2,0.543457031,1.0,3.0,1.0,2.0,447.7539063,95.703125,0.301269531,I I C,1.178730245,1,H,21,NAN,7,39
3,2,2.0,3,0.493652344,1.0,1.0,1.0,0.0,394.0429688,99.609375,0.394042969,C,1.111155257,1,H,21,NAN,7,40
3,2,2.0,3,0.528320313,1.0,2.0,2.0,0.0,460.9375,67.3828125,0.229492188,C C,1.411842704,1,H,21,NAN,7,41
3,1,1.0,3,0.397460938,1.0,1.0,1.0,0.0,296.875,100.5859375,0.296875,C,0.922205437,1,H,21,NAN,7,42
3,1,2.0,0,0.318847656,0.0,1.0,0.0,1.0,217.2851563,101.5625,0.217285156,I,1.126767755,1,H,21,NAN,7,43
3,1,1.0,3,0.377441406,1.0,1.0,1.0,0.0,262.2070313,115.234375,0.262207031,C,0.90614294,1,H,21,NAN,7,44
3,1,1.0,4,0.411621094,1.0,1.0,1.0,0.0,273.9257813,137.6953125,0.273925781,C,0.920742937,1,H,21,NAN,7,45
3,2,2.0,1,0.504394531,1.0,2.0,1.0,1.0,413.0859375,91.30859375,0.244140625,I C,1.312705221,1,H,21,NAN,7,46
3,1,1.0,3,0.379394531,1.0,1.0,1.0,0.0,266.1132813,113.28125,0.266113281,C,0.999155423,1,H,21,NAN,7,47
3,2,1.0,1,0.435058594,0.0,1.0,0.0,1.0,331.5429688,103.515625,0.331542969,I,0.996792924,1,H,21,NAN,7,48
3,1,2.0,0,0.385253906,0.0,1.0,0.0,1.0,255.3710938,129.8828125,0.255371094,I,1.145367751,1,H,21,NAN,7,49
3,1,1.0,3,0.328613281,1.0,1.0,1.0,0.0,238.7695313,89.84375,0.238769531,C,1.032555417,1,H,21,NAN,7,50
3,1,1.0,4,0.372070313,1.0,1.0,1.0,0.0,262.2070313,109.8632813,0.262207031,C,1.076605409,1,H,21,NAN,7,51
3,2,2.0,2,0.456542969,1.0,2.0,1.0,1.0,369.6289063,86.9140625,0.26171875,I C,1.235092735,1,H,21,NAN,7,52
3,2,1.0,0,0.424804688,0.0,1.0,0.0,1.0,244.6289063,180.1757813,0.244628906,I,0.814192956,1,H,21,NAN,7,53
3,2,2.0,2,0.393554688,1.0,2.0,1.0,1.0,309.0820313,84.47265625,0.223144531,I C,1.200317741,1,H,21,NAN,7,54
3,1,1.0,2,0.637695313,1.0,2.0,2.0,0.0,536.6210938,101.0742188,0.325683594,C C,1.165092893,1,H,21,NAN,7,55
3,2,2.0,3,0.403808594,1.0,1.0,1.0,0.0,296.3867188,107.421875,0.296386719,C,1.139030252,1,H,21,NAN,7,56
3,1,1.0,3,0.411621094,1.0,1.0,1.0,0.0,296.3867188,115.234375,0.296386719,C,0.90551794,1,H,21,NAN,7,57
3,1,1.0,3,0.7109375,1.0,4.0,3.0,1.0,623.046875,87.890625,0.206054688,C I C C,1.134555399,1,H,21,NAN,7,58
3,1,1.0,2,0.453613281,1.0,2.0,1.0,1.0,321.7773438,131.8359375,0.168457031,I C,1.01741792,1,H,21,NAN,7,59
3,1,1.0,3,0.394042969,1.0,1.0,1.0,0.0,308.1054688,85.9375,0.308105469,C,1.176542891,1,H,21,NAN,7,60
3,2,1.0,0,0.465820313,0.0,1.0,0.0,1.0,318.359375,147.4609375,0.318359375,I,0.841017951,1,H,21,NAN,7,61
3,2,2.0,3,0.415527344,1.0,3.0,1.0,2.0,326.171875,89.35546875,0.131835938,I I C,1.260430231,1,H,21,NAN,7,62
3,2,2.0,1,0.665527344,1.0,2.0,1.0,1.0,588.3789063,77.1484375,0.272460938,I C,1.229055236,1,H,21,NAN,7,63
3,2,2.0,2,0.361328125,1.0,1.0,1.0,0.0,273.4375,87.890625,0.2734375,C,1.277080228,1,H,21,NAN,7,64
3,2,2.0,2,0.37109375,1.0,1.0,1.0,0.0,265.625,105.46875,0.265625,C,1.106467758,1,H,21,NAN,7,65
3,2,2.0,3,0.377929688,1.0,1.0,1.0,0.0,293.4570313,84.47265625,0.293457031,C,1.298292724,1,H,21,NAN,7,66
3,2,2.0,4,0.369140625,1.0,1.0,1.0,0.0,259.765625,109.375,0.259765625,C,1.170242747,1,H,21,NAN,7,67
3,1,1.0,2,0.421386719,1.0,1.0,1.0,0.0,320.3125,101.0742188,0.3203125,C,1.044905415,1,H,21,NAN,7,68
3,2,2.0,3,0.453125,1.0,1.0,1.0,0.0,340.3320313,112.7929688,0.340332031,C,1.075405264,1,H,21,NAN,7,69
3,1,1.0,2,0.429199219,1.0,1.0,1.0,0.0,300.78125,128.4179688,0.30078125,C,0.895117942,1,H,21,NAN,7,70
3,2,2.0,2,0.470703125,1.0,1.0,1.0,0.0,401.3671875,69.3359375,0.401367188,C,1.886067619,1,H,21,NAN,8,1
3,1,1.0,2,0.3984375,1.0,1.0,1.0,0.0,310.0585938,88.37890625,0.310058594,C,1.085055408,1,H,21,NAN,8,2
3,2,1.0,0,0.376464844,0.0,1.0,0.0,1.0,266.6015625,109.8632813,0.266601563,I,1.1263429,1,H,21,NAN,8,3
3,1,1.0,3,0.344726563,1.0,1.0,1.0,0.0,246.5820313,98.14453125,0.246582031,C,1.063342912,1,H,21,NAN,8,4
3,1,1.0,2,0.393554688,1.0,1.0,1.0,0.0,274.9023438,118.6523438,0.274902344,C,1.001692923,1,H,21,NAN,8,5
3,1,1.0,3,0.313964844,1.0,1.0,1.0,0.0,186.0351563,127.9296875,0.186035156,C,1.124005401,1,H,21,NAN,8,6
3,2,2.0,1,0.688964844,1.0,3.0,2.0,1.0,615.7226563,73.2421875,0.151855469,I C C,1.294367725,1,H,21,NAN,8,7
3,2,2.0,3,0.356445313,1.0,1.0,1.0,0.0,272.4609375,83.984375,0.272460938,C,1.37596771,1,H,21,NAN,8,8
3,2,2.0,4,0.391601563,1.0,1.0,1.0,0.0,311.5234375,80.078125,0.311523438,C,1.314192721,1,H,21,NAN,8,9
3,1,1.0,4,0.357910156,1.0,1.0,1.0,0.0,259.2773438,98.6328125,0.259277344,C,1.124767901,1,H,21,NAN,8,10
3,1,1.0,4,0.4296875,1.0,1.0,1.0,0.0,329.5898438,100.0976563,0.329589844,C,1.106217904,1,H,21,NAN,8,11
3,2,2.0,4,0.380859375,1.0,1.0,1.0,0.0,278.8085938,102.0507813,0.278808594,C,1.109342758,1,H,21,NAN,8,12
3,2,2.0,3,0.4296875,1.0,1.0,1.0,0.0,341.796875,87.890625,0.341796875,C,1.165842748,1,H,21,NAN,8,13
3,2,2.0,4,0.365722656,1.0,1.0,1.0,0.0,286.1328125,79.58984375,0.286132813,C,1.199030242,1,H,21,NAN,8,14
3,2,2.0,3,0.376953125,1.0,1.0,1.0,0.0,296.3867188,80.56640625,0.296386719,C,1.205580241,1,H,21,NAN,8,15
3,1,1.0,3,0.405273438,1.0,1.0,1.0,0.0,302.734375,102.5390625,0.302734375,C,1.011930421,1,H,21,NAN,8,16
3,2,2.0,4,0.354980469,1.0,2.0,1.0,1.0,246.09375,108.8867188,0.238769531,I C,1.186255244,1,H,21,NAN,8,17
3,1,1.0,4,0.434570313,1.0,1.0,1.0,0.0,330.078125,104.4921875,0.330078125,C,0.875792945,1,H,21,NAN,8,18
3,2,2.0,4,0.933105469,1.0,2.0,1.0,1.0,593.2617188,339.84375,0.229980469,I C,1.616580167,1,H,21,NAN,8,19
3,2,2.0,4,0.405273438,1.0,1.0,1.0,0.0,315.9179688,89.35546875,0.315917969,C,1.313530221,1,H,21,NAN,8,20
3,2,2.0,4,0.387207031,1.0,2.0,1.0,1.0,308.1054688,79.1015625,0.151855469,I C,1.292942725,1,H,21,NAN,8,21
3,2,2.0,4,0.362792969,1.0,1.0,1.0,0.0,269.53125,93.26171875,0.26953125,C,1.205142741,1,H,21,NAN,8,22
3,2,2.0,3,0.336914063,1.0,1.0,1.0,0.0,244.6289063,92.28515625,0.244628906,C,1.323642719,1,H,21,NAN,8,23
3,1,1.0,3,0.397949219,1.0,1.0,1.0,0.0,303.2226563,94.7265625,0.303222656,C,1.132130399,1,H,21,NAN,8,24
3,2,2.0,3,0.396484375,1.0,1.0,1.0,0.0,322.7539063,73.73046875,0.322753906,C,1.346980215,1,H,21,NAN,8,25
3,2,2.0,3,0.413574219,1.0,2.0,1.0,1.0,357.9101563,55.6640625,0.313476563,I C,1.509567686,1,H,21,NAN,8,26
3,1,1.0,2,0.435058594,1.0,1.0,1.0,0.0,332.03125,103.0273438,0.33203125,C,0.864555447,1,H,21,NAN,8,27
3,2,2.0,3,0.385253906,1.0,2.0,1.0,1.0,306.640625,78.61328125,0.236328125,I C,1.271092729,1,H,21,NAN,8,28
3,2,2.0,2,0.502929688,1.0,3.0,1.0,2.0,409.6679688,93.26171875,0.190917969,I I C,1.118467756,1,H,21,NAN,8,29
3,1,1.0,1,0.720214844,1.0,2.0,1.0,1.0,625.0,95.21484375,0.407226563,I C,1.114380403,1,H,21,NAN,8,30
3,2,2.0,2,0.435546875,1.0,2.0,1.0,1.0,335.9375,99.609375,0.202148438,I C,1.179917745,1,H,21,NAN,8,31
3,2,2.0,3,0.392578125,1.0,1.0,1.0,0.0,302.734375,89.84375,0.302734375,C,1.167755247,1,H,21,NAN,8,32
3,2,2.0,3,0.662109375,1.0,1.0,1.0,0.0,337.890625,324.21875,0.337890625,C,1.338267717,1,H,21,NAN,8,33
3,2,2.0,3,0.409667969,1.0,1.0,1.0,0.0,312.5,97.16796875,0.3125,C,1.203692741,1,H,21,NAN,8,34
3,2,2.0,3,0.376464844,1.0,1.0,1.0,0.0,285.15625,91.30859375,0.28515625,C,1.201105241,1,H,21,NAN,8,35
3,1,1.0,3,0.385742188,1.0,1.0,1.0,0.0,285.15625,100.5859375,0.28515625,C,0.985192926,1,H,21,NAN,8,36
3,2,2.0,2,0.404296875,1.0,1.0,1.0,0.0,316.40625,87.890625,0.31640625,C,1.37798021,1,H,21,NAN,8,37
3,2,2.0,3,0.370117188,1.0,1.0,1.0,0.0,252.4414063,117.6757813,0.252441406,C,1.143367752,1,H,21,NAN,8,38
3,2,2.0,2,0.450195313,1.0,1.0,1.0,0.0,361.8164063,88.37890625,0.361816406,C,1.291705225,1,H,21,NAN,8,39
3,1,1.0,3,0.397949219,1.0,1.0,1.0,0.0,309.5703125,88.37890625,0.309570313,C,1.188830389,1,H,21,NAN,8,40
3,1,1.0,3,0.386230469,1.0,1.0,1.0,0.0,293.9453125,92.28515625,0.293945313,C,1.079505409,1,H,21,NAN,8,41
3,1,1.0,3,0.396484375,1.0,1.0,1.0,0.0,291.015625,105.46875,0.291015625,C,0.979992927,1,H,21,NAN,8,42
3,1,1.0,3,0.312011719,1.0,1.0,1.0,0.0,189.453125,122.5585938,0.189453125,C,0.951180432,1,H,21,NAN,8,43
3,1,1.0,3,0.614746094,1.0,2.0,2.0,0.0,483.8867188,130.859375,0.227050781,C C,1.059167912,1,H,21,NAN,8,44
3,2,2.0,3,0.416503906,1.0,NAN,NAN,NAN,NAN,NAN,NAN,NAN,NAN,0,H,21,NAN,8,45
3,2,2.0,2,0.365722656,1.0,NAN,NAN,NAN,NAN,NAN,NAN,NAN,NAN,0,H,21,NAN,8,46
3,2,2.0,2,0.421875,1.0,NAN,NAN,NAN,NAN,NAN,NAN,NAN,NAN,0,H,21,NAN,8,47
3,1,1.0,3,0.422363281,1.0,NAN,NAN,NAN,NAN,NAN,NAN,NAN,NAN,0,H,21,NAN,8,48
3,1,1.0,3,0.373046875,1.0,1.0,1.0,0.0,253.4179688,119.6289063,0.253417969,C,1.135342899,1,H,21,NAN,8,49
3,1,1.0,3,0.346191406,1.0,1.0,1.0,0.0,248.046875,98.14453125,0.248046875,C,1.187917889,1,H,21,NAN,8,50
3,1,1.0,2,0.371582031,1.0,1.0,1.0,0.0,291.5039063,80.078125,0.291503906,C,1.156780395,1,H,21,NAN,8,51
3,1,1.0,3,0.34765625,1.0,1.0,1.0,0.0,189.453125,158.203125,0.189453125,C,0.900605441,1,H,21,NAN,8,52
3,2,2.0,3,0.55078125,1.0,2.0,1.0,1.0,431.1523438,119.6289063,0.165527344,I C,1.09489276,1,H,21,NAN,8,53
3,1,1.0,4,0.432617188,1.0,1.0,1.0,0.0,334.4726563,98.14453125,0.334472656,C,1.005317922,1,H,21,NAN,8,54
3,1,1.0,2,0.608886719,1.0,3.0,2.0,1.0,493.1640625,115.7226563,0.326660156,C I C,0.937530434,1,H,21,NAN,8,55
3,1,1.0,3,0.382324219,1.0,1.0,1.0,0.0,250.4882813,131.8359375,0.250488281,C,0.878380445,1,H,21,NAN,8,56
3,1,1.0,4,0.372558594,1.0,3.0,3.0,0.0,282.7148438,89.84375,0.017089844,C C C,0.980905426,1,H,21,NAN,8,57
3,1,1.0,4,0.41796875,1.0,2.0,2.0,0.0,320.8007813,97.16796875,0.212890625,C C,0.944680433,1,H,21,NAN,8,58
3,2,2.0,2,0.702636719,1.0,2.0,1.0,1.0,451.6601563,250.9765625,0.167480469,I C,1.350305215,1,H,21,NAN,8,59
3,1,1.0,3,0.415527344,1.0,2.0,2.0,0.0,312.9882813,102.5390625,0.204589844,C C,0.951355432,1,H,21,NAN,8,60
3,2,2.0,3,0.453613281,1.0,3.0,1.0,2.0,342.2851563,111.328125,0.222167969,I C,1.381567709,1,H,21,NAN,8,61
3,1,1.0,3,0.39453125,1.0,1.0,1.0,0.0,282.7148438,111.8164063,0.282714844,C,1.042155415,1,H,21,NAN,8,62
3,1,1.0,4,0.440429688,1.0,1.0,1.0,0.0,339.3554688,101.0742188,0.339355469,C,0.951280432,1,H,21,NAN,8,63
3,2,2.0,3,0.491699219,1.0,2.0,1.0,1.0,385.7421875,105.9570313,0.26171875,I C,1.181917745,1,H,21,NAN,8,64
3,2,2.0,2,0.4453125,1.0,1.0,1.0,0.0,329.1015625,116.2109375,0.329101563,C,1.284230226,1,H,21,NAN,8,65
3,1,1.0,2,0.399902344,1.0,2.0,2.0,0.0,309.0820313,90.8203125,0.204589844,C C,0.995892924,1,H,21,NAN,8,66
3,2,2.0,3,0.3984375,1.0,2.0,1.0,1.0,315.4296875,83.0078125,0.2265625,I C,1.272092729,1,H,21,NAN,8,67
3,1,1.0,4,0.375976563,1.0,1.0,1.0,0.0,233.8867188,142.0898438,0.233886719,C,0.822742955,1,H,21,NAN,8,68
3,1,1.0,4,0.583496094,1.0,2.0,2.0,0.0,498.046875,85.44921875,0.268066406,C C,1.058292913,1,H,21,NAN,8,69
3,2,2.0,4,0.5,1.0,NAN,NAN,NAN,NAN,NAN,NAN,NAN,NAN,0,H,21,NAN,8,70
3,1,1.0,1,0.446777344,1.0,1.0,1.0,0.0,338.8671875,107.9101563,0.338867188,C,1.244680379,1,H,21,NAN,9,1
3,1,1.0,2,0.357421875,1.0,1.0,1.0,0.0,236.8164063,120.6054688,0.236816406,C,1.234592881,1,H,21,NAN,9,2
3,2,2.0,4,0.407226563,1.0,1.0,1.0,0.0,308.59375,98.6328125,0.30859375,C,1.204880241,1,H,21,NAN,9,3
3,2,2.0,3,0.389160156,1.0,1.0,1.0,0.0,311.0351563,78.125,0.311035156,C,1.323092719,1,H,21,NAN,9,4
3,1,1.0,3,0.416992188,1.0,1.0,1.0,0.0,320.3125,96.6796875,0.3203125,C,1.122130401,1,H,21,NAN,9,5
3,1,1.0,4,0.322753906,1.0,1.0,1.0,0.0,201.6601563,121.09375,0.201660156,C,1.116642902,1,H,21,NAN,9,6
3,2,2.0,4,0.3828125,1.0,1.0,1.0,0.0,306.1523438,76.66015625,0.306152344,C,1.305392723,1,H,21,NAN,9,7
3,1,1.0,4,0.337402344,1.0,1.0,1.0,0.0,231.9335938,105.46875,0.231933594,C,1.048230414,1,H,21,NAN,9,8
3,2,2.0,4,0.40625,1.0,1.0,1.0,0.0,309.5703125,96.6796875,0.309570313,C,1.175305246,1,H,21,NAN,9,9
3,1,1.0,4,0.448242188,1.0,1.0,1.0,0.0,354.4921875,93.75,0.354492188,C,0.973242928,1,H,21,NAN,9,10
3,2,2.0,3,0.428710938,1.0,2.0,1.0,1.0,356.9335938,71.77734375,0.213867188,I C,1.351467714,1,H,21,NAN,9,11
3,2,2.0,3,0.369628906,1.0,2.0,1.0,1.0,271.484375,98.14453125,0.168457031,I C,1.190417743,1,H,21,NAN,9,12
3,1,1.0,4,0.382324219,1.0,4.0,3.0,1.0,307.1289063,75.1953125,0.082519531,C C I C,1.276505374,1,H,21,NAN,9,13
3,1,1.0,4,0.416503906,1.0,2.0,2.0,0.0,311.5234375,104.9804688,0.237304688,C C,1.010717921,1,H,21,NAN,9,14
3,1,1.0,3,0.397949219,1.0,2.0,2.0,0.0,269.53125,128.4179688,0.069824219,C C,1.033605417,1,H,21,NAN,9,15
3,2,2.0,4,0.564453125,1.0,3.0,1.0,2.0,506.8359375,57.6171875,0.259277344,I I C,1.502017688,1,H,21,NAN,9,16
3,2,2.0,4,0.372070313,1.0,1.0,1.0,0.0,278.8085938,93.26171875,0.278808594,C,1.20643024,1,H,21,NAN,9,17
3,2,2.0,4,0.360839844,1.0,2.0,1.0,1.0,266.6015625,94.23828125,0.192871094,I C,1.15216775,1,H,21,NAN,9,18
3,1,1.0,3,0.368164063,1.0,2.0,2.0,0.0,281.7382813,86.42578125,0.147460938,C C,1.206542886,1,H,21,NAN,9,19
3,1,1.0,2,0.409179688,1.0,1.0,1.0,0.0,258.7890625,150.390625,0.258789063,C,1.158205395,1,H,21,NAN,9,20
3,2,2.0,3,0.663085938,1.0,2.0,1.0,1.0,330.078125,333.0078125,0.209472656,I C,1.123555255,1,H,21,NAN,9,21
3,1,1.0,4,0.547851563,1.0,3.0,2.0,1.0,466.796875,81.0546875,0.234375,I C C,1.246655379,1,H,21,NAN,9,22
3,1,1.0,4,0.502441406,1.0,NAN,NAN,NAN,NAN,NAN,NAN,NAN,NAN,0,H,21,NAN,9,23
3,1,1.0,4,0.369628906,1.0,1.0,1.0,0.0,296.3867188,73.2421875,0.296386719,C,1.215767884,1,H,21,NAN,9,24
3,1,1.0,3,0.377929688,1.0,1.0,1.0,0.0,299.3164063,78.61328125,0.299316406,C,1.249117878,1,H,21,NAN,9,25
3,1,1.0,3,0.309570313,1.0,1.0,1.0,0.0,226.0742188,83.49609375,0.226074219,C,1.211380385,1,H,21,NAN,9,26
3,2,2.0,2,0.484375,1.0,1.0,1.0,0.0,401.8554688,82.51953125,0.401855469,C,1.439617699,1,H,21,NAN,9,27
3,2,2.0,3,0.369628906,1.0,1.0,1.0,0.0,266.6015625,103.0273438,0.266601563,C,1.198442742,1,H,21,NAN,9,28
3,1,1.0,3,0.391601563,1.0,1.0,1.0,0.0,307.1289063,84.47265625,0.307128906,C,1.167292893,1,H,21,NAN,9,29
3,1,1.0,4,0.391113281,1.0,1.0,1.0,0.0,310.546875,80.56640625,0.310546875,C,1.216817884,1,H,21,NAN,9,30
3,2,2.0,4,0.409179688,1.0,2.0,1.0,1.0,318.359375,90.8203125,0.133300781,I C,1.366717712,1,H,21,NAN,9,31
3,2,2.0,4,0.560058594,1.0,1.0,1.0,0.0,293.4570313,266.6015625,0.293457031,C,1.211630239,1,H,21,NAN,9,32
3,2,2.0,2,0.375,1.0,1.0,1.0,0.0,253.4179688,121.5820313,0.253417969,C,1.470130193,1,H,21,NAN,9,33
3,2,2.0,3,0.396484375,1.0,2.0,1.0,1.0,315.9179688,80.56640625,0.179199219,I C,1.441080198,1,H,21,NAN,9,34
3,1,1.0,2,0.357910156,1.0,1.0,1.0,0.0,272.4609375,85.44921875,0.272460938,C,1.172192892,1,H,21,NAN,9,35
3,1,1.0,3,0.469726563,1.0,3.0,2.0,1.0,370.6054688,99.12109375,0.176757813,C I C,1.227880382,1,H,21,NAN,9,36
3,1,1.0,4,0.410644531,1.0,2.0,2.0,0.0,293.4570313,117.1875,0.168457031,C C,1.135092899,1,H,21,NAN,9,37
3,2,2.0,4,0.388183594,1.0,2.0,1.0,1.0,314.453125,73.73046875,0.155761719,I C,1.399880206,1,H,21,NAN,9,38
3,2,2.0,4,0.374023438,1.0,2.0,1.0,1.0,299.3164063,74.70703125,0.262207031,I C,1.484067691,1,H,21,NAN,9,39
3,1,1.0,3,0.386230469,1.0,1.0,1.0,0.0,246.5820313,139.6484375,0.246582031,C,0.951780432,1,H,21,NAN,9,40
3,1,1.0,3,0.438964844,1.0,1.0,1.0,0.0,314.9414063,124.0234375,0.314941406,C,1.009255421,1,H,21,NAN,9,41
3,2,2.0,4,0.462402344,1.0,2.0,1.0,1.0,374.0234375,88.37890625,0.208007813,I C,1.255230232,1,H,21,NAN,9,42
3,2,2.0,4,0.400878906,1.0,3.0,1.0,2.0,309.5703125,91.30859375,0.118652344,I I C,1.253292732,1,H,21,NAN,9,43
3,2,2.0,4,0.409667969,1.0,2.0,1.0,1.0,310.546875,99.12109375,0.247558594,I C,1.260642731,1,H,21,NAN,9,44
3,1,1.0,3,0.418457031,1.0,2.0,1.0,1.0,315.4296875,103.0273438,0.236328125,I C,0.981642926,1,H,21,NAN,9,45
3,1,1.0,3,0.461425781,1.0,2.0,1.0,1.0,320.3125,141.1132813,0.220703125,I C,1.031055417,1,H,21,NAN,9,46
3,2,2.0,4,0.427246094,1.0,2.0,1.0,1.0,332.03125,95.21484375,0.2265625,I C,1.197705242,1,H,21,NAN,9,47
3,1,1.0,4,0.383300781,1.0,1.0,1.0,0.0,244.6289063,138.671875,0.244628906,C,1.07258041,1,H,21,NAN,9,48
3,1,1.0,3,0.456054688,1.0,1.0,1.0,0.0,346.6796875,109.375,0.346679688,C,0.972592928,1,H,21,NAN,9,49
3,2,2.0,4,0.69921875,1.0,1.0,1.0,0.0,339.3554688,359.8632813,0.339355469,C,1.189555243,1,H,21,NAN,9,50
3,2,2.0,4,0.356933594,1.0,2.0,1.0,1.0,276.3671875,80.56640625,0.159179688,I C,1.424580201,1,H,21,NAN,9,51
3,2,2.0,4,0.445800781,1.0,1.0,1.0,0.0,342.2851563,103.515625,0.342285156,C,1.15503025,1,H,21,NAN,9,52
3,2,2.0,4,0.369140625,1.0,1.0,1.0,0.0,282.7148438,86.42578125,0.282714844,C,1.394555207,1,H,21,NAN,9,53
3,1,1.0,3,0.392578125,1.0,1.0,1.0,0.0,291.015625,101.5625,0.291015625,C,0.949730432,1,H,21,NAN,9,54
3,2,2.0,4,0.377929688,1.0,2.0,1.0,1.0,296.875,81.0546875,0.26171875,I C,1.334755217,1,H,21,NAN,9,55
3,2,2.0,4,0.348144531,1.0,2.0,1.0,1.0,259.765625,88.37890625,0.182617188,I C,1.270142729,1,H,21,NAN,9,56
3,2,2.0,1,0.624511719,1.0,3.0,1.0,2.0,413.5742188,210.9375,0.280761719,I C,1.278180228,1,H,21,NAN,9,57
3,2,2.0,2,0.495605469,1.0,2.0,1.0,1.0,411.1328125,84.47265625,0.312011719,I C,1.472780193,1,H,21,NAN,9,58
3,2,2.0,3,0.392089844,1.0,2.0,1.0,1.0,315.4296875,76.66015625,0.262695313,I C,1.477467692,1,H,21,NAN,9,59
3,1,1.0,1,0.4765625,1.0,1.0,1.0,0.0,367.6757813,108.8867188,0.367675781,C,0.980680426,1,H,21,NAN,9,60
3,1,1.0,2,0.41015625,1.0,1.0,1.0,0.0,311.5234375,98.6328125,0.311523438,C,1.025605418,1,H,21,NAN,9,61
3,2,1.0,0,0.362792969,0.0,1.0,0.0,1.0,248.046875,114.7460938,0.248046875,I,0.861030448,1,H,21,NAN,9,62
3,1,1.0,2,0.418457031,1.0,1.0,1.0,0.0,320.3125,98.14453125,0.3203125,C,1.026317918,1,H,21,NAN,9,63
3,2,2.0,2,0.426757813,1.0,2.0,1.0,1.0,321.7773438,104.9804688,0.176757813,I C,1.15226775,1,H,21,NAN,9,64
3,2,2.0,3,0.478515625,1.0,3.0,1.0,2.0,406.25,72.265625,0.17578125,I I C,1.392742707,1,H,21,NAN,9,65
3,2,2.0,3,0.351074219,1.0,1.0,1.0,0.0,274.4140625,76.66015625,0.274414063,C,1.442455198,1,H,21,NAN,9,66
3,2,2.0,3,0.43359375,1.0,1.0,1.0,0.0,359.375,74.21875,0.359375,C,1.392617707,1,H,21,NAN,9,67
3,1,1.0,2,0.451171875,1.0,1.0,1.0,0.0,339.84375,111.328125,0.33984375,C,0.870917946,1,H,21,NAN,9,68
3,1,2.0,0,0.404296875,0.0,1.0,0.0,1.0,313.4765625,90.8203125,0.313476563,I,1.189542743,1,H,21,NAN,9,69
3,2,2.0,3,0.430175781,1.0,2.0,1.0,1.0,336.9140625,93.26171875,0.297851563,I C,1.225855237,1,H,21,NAN,9,70
3,2,2.0,2,0.670898438,1.0,NAN,NAN,NAN,NAN,NAN,NAN,NAN,NAN,0,H,21,NAN,10,1
3,2,2.0,3,0.383789063,1.0,2.0,1.0,1.0,283.6914063,100.0976563,0.15234375,I C,1.174067746,1,H,21,NAN,10,2
3,1,1.0,3,0.453613281,1.0,1.0,1.0,0.0,360.8398438,92.7734375,0.360839844,C,1.089430407,1,H,21,NAN,10,3
3,1,1.0,3,0.319824219,1.0,1.0,1.0,0.0,207.03125,112.7929688,0.20703125,C,1.059667912,1,H,21,NAN,10,4
3,1,2.0,0,0.441894531,0.0,2.0,1.0,1.0,346.1914063,95.703125,0.240234375,C I,1.113617757,1,H,21,NAN,10,5
3,1,1.0,4,0.415039063,1.0,1.0,1.0,0.0,319.8242188,95.21484375,0.319824219,C,1.077617909,1,H,21,NAN,10,6
3,2,2.0,4,0.465332031,1.0,1.0,1.0,0.0,325.1953125,140.1367188,0.325195313,C,1.079567763,1,H,21,NAN,10,7
3,2,2.0,4,0.457519531,1.0,1.0,1.0,0.0,357.421875,100.0976563,0.357421875,C,1.156755249,1,H,21,NAN,10,8
3,2,2.0,4,0.758789063,1.0,2.0,2.0,0.0,692.3828125,66.40625,0.323242188,C C,1.834467628,1,H,21,NAN,10,9
3,1,1.0,3,0.410644531,1.0,1.0,1.0,0.0,328.125,82.51953125,0.328125,C,1.108930404,1,H,21,NAN,10,10
3,1,1.0,3,0.335449219,1.0,1.0,1.0,0.0,191.40625,144.0429688,0.19140625,C,1.098580405,1,H,21,NAN,10,11
3,2,2.0,4,0.465820313,1.0,2.0,1.0,1.0,386.2304688,79.58984375,0.268066406,I C,1.304442723,1,H,21,NAN,10,12
3,1,1.0,3,0.420410156,1.0,1.0,1.0,0.0,298.3398438,122.0703125,0.298339844,C,0.975330427,1,H,21,NAN,10,13
3,2,2.0,4,0.487304688,1.0,3.0,1.0,2.0,397.4609375,89.84375,0.25,I I C,1.158492749,1,H,21,NAN,10,14
3,2,2.0,4,0.455566406,1.0,2.0,1.0,1.0,347.65625,107.9101563,0.217285156,I C,1.110892757,1,H,21,NAN,10,15
3,2,2.0,2,0.440917969,1.0,1.0,1.0,0.0,337.890625,103.0273438,0.337890625,C,1.09409276,1,H,21,NAN,10,16
