Subj_idx,Stimulus,Response,Confidence,RT_dec,Accuracy,nbrA,CA,IA,prmt,mt,Apmt,EMGtrial,force,EMG,Gender,age,RT_conf,Block,Trial
1,2,1.0,2,1.018066406,0.0,5.0,1.0,4.0,901.3671875,116.6992188,0.33984375,I C I I I,1.259780377,1,F,20,NAN,1,1
1,1,1.0,2,0.690917969,1.0,1.0,1.0,0.0,525.390625,165.5273438,0.525390625,C,0.932192935,1,F,20,NAN,1,2
1,1,1.0,3,0.75,1.0,2.0,1.0,1.0,576.171875,173.828125,0.260742188,I C,0.95981793,1,F,20,NAN,1,3
1,1,1.0,3,0.697753906,1.0,2.0,2.0,0.0,447.7539063,250.0,0.349121094,C C,1.059130412,1,F,20,NAN,1,4
1,1,1.0,3,0.690917969,1.0,2.0,1.0,1.0,409.6679688,281.25,0.26171875,I C,1.043530415,1,F,20,NAN,1,5
1,1,1.0,1,1.314941406,1.0,6.0,6.0,0.0,1186.035156,128.90625,0.512207031,C C C C C C,1.174180392,1,F,20,NAN,1,6
1,2,2.0,4,0.567382813,1.0,1.0,1.0,0.0,455.5664063,111.8164063,0.455566406,C,1.719942649,1,F,20,NAN,1,7
1,1,1.0,3,0.642578125,1.0,NAN,NAN,NAN,NAN,NAN,NAN,NAN,NAN,0,F,20,NAN,1,8
1,2,2.0,4,0.555664063,1.0,1.0,1.0,0.0,451.171875,104.4921875,0.451171875,C,1.647042662,1,F,20,NAN,1,9
1,1,1.0,3,0.636230469,1.0,1.0,1.0,0.0,461.9140625,174.3164063,0.461914063,C,0.870717946,1,F,20,NAN,1,10
1,2,1.0,1,1.176757813,0.0,2.0,0.0,2.0,1025.390625,151.3671875,0.694335938,I I,1.23954288,1,F,20,NAN,1,11
1,2,2.0,4,0.509765625,1.0,1.0,1.0,0.0,362.7929688,146.9726563,0.362792969,C,1.351992714,1,F,20,NAN,1,12
1,1,1.0,4,0.577636719,1.0,1.0,1.0,0.0,395.9960938,181.640625,0.395996094,C,0.871355446,1,F,20,NAN,1,13
1,2,2.0,3,0.569824219,1.0,1.0,1.0,0.0,427.734375,142.0898438,0.427734375,C,1.052392768,1,F,20,NAN,1,14
1,2,2.0,4,0.589355469,1.0,1.0,1.0,0.0,462.890625,126.4648438,0.462890625,C,1.142405252,1,F,20,NAN,1,15
1,2,2.0,3,0.912597656,1.0,4.0,3.0,1.0,785.6445313,126.953125,0.386230469,C I C C,1.332117718,1,F,20,NAN,1,16
1,1,1.0,4,0.71484375,1.0,2.0,2.0,0.0,620.1171875,94.7265625,0.303710938,C C,1.226830382,1,F,20,NAN,1,17
1,1,1.0,2,1.183105469,1.0,2.0,2.0,0.0,953.125,229.9804688,0.70703125,C C,1.07368041,1,F,20,NAN,1,18
1,1,1.0,2,0.715820313,1.0,1.0,1.0,0.0,504.8828125,210.9375,0.504882813,C,0.881530444,1,F,20,NAN,1,19
1,1,1.0,3,0.693847656,1.0,1.0,1.0,0.0,329.5898438,364.2578125,0.329589844,C,0.876792945,1,F,20,NAN,1,20
1,2,2.0,4,0.490722656,1.0,1.0,1.0,0.0,336.9140625,153.8085938,0.336914063,C,1.216417739,1,F,20,NAN,1,21
1,2,2.0,3,0.649414063,1.0,1.0,1.0,0.0,507.8125,141.6015625,0.5078125,C,1.20820524,1,F,20,NAN,1,22
1,2,1.0,1,1.088867188,0.0,3.0,0.0,3.0,937.9882813,150.8789063,0.464355469,I I I,1.078280409,1,F,20,NAN,1,23
1,1,NAN,1,NAN,NAN,NAN,NAN,NAN,NAN,NAN,NAN,NAN,NAN,0,F,20,NAN,1,24
1,1,1.0,3,0.547851563,1.0,1.0,1.0,0.0,389.6484375,158.203125,0.389648438,C,1.033842917,1,F,20,NAN,1,25
1,1,1.0,1,0.711914063,1.0,1.0,1.0,0.0,538.5742188,173.3398438,0.538574219,C,0.988117925,1,F,20,NAN,1,26
1,1,1.0,1,0.730957031,1.0,1.0,1.0,0.0,621.5820313,109.375,0.621582031,C,0.863817947,1,F,20,NAN,1,27
1,2,2.0,4,0.518554688,1.0,1.0,1.0,0.0,414.0625,104.4921875,0.4140625,C,0.967917783,1,F,20,NAN,1,28
1,2,1.0,1,1.376464844,0.0,3.0,1.0,2.0,939.453125,437.0117188,0.350097656,C I I,1.084030408,1,F,20,NAN,1,29
1,2,2.0,2,0.901367188,1.0,3.0,2.0,1.0,827.1484375,74.21875,0.434082031,C I C,1.676842656,1,F,20,NAN,1,30
1,1,1.0,1,0.651367188,1.0,2.0,2.0,0.0,471.1914063,180.1757813,0.353515625,C C,0.924380437,1,F,20,NAN,1,31
1,2,2.0,3,1.016601563,1.0,2.0,2.0,0.0,883.3007813,133.3007813,0.533203125,C C,1.243305234,1,F,20,NAN,1,32
1,1,1.0,2,0.584472656,1.0,1.0,1.0,0.0,422.8515625,161.6210938,0.422851563,C,1.112017903,1,F,20,NAN,1,33
1,1,1.0,2,0.609863281,1.0,2.0,2.0,0.0,425.2929688,184.5703125,0.329101563,C C,0.921255437,1,F,20,NAN,1,34
1,1,1.0,1,0.685546875,1.0,1.0,1.0,0.0,563.4765625,122.0703125,0.563476563,C,0.988305425,1,F,20,NAN,1,35
1,1,1.0,1,1.026367188,1.0,3.0,3.0,0.0,928.7109375,97.65625,0.544921875,C C C,1.244855379,1,F,20,NAN,1,36
1,2,2.0,2,0.658691406,1.0,1.0,1.0,0.0,557.6171875,101.0742188,0.557617188,C,1.113280257,1,F,20,NAN,1,37
1,1,1.0,1,0.733398438,1.0,1.0,1.0,0.0,588.3789063,145.0195313,0.588378906,C,0.859492948,1,F,20,NAN,1,38
1,2,NAN,1,NAN,NAN,NAN,NAN,NAN,NAN,NAN,NAN,NAN,NAN,0,F,20,NAN,1,39
1,2,1.0,1,0.288574219,0.0,1.0,0.0,1.0,148.9257813,139.6484375,0.148925781,I,0.990980425,1,F,20,NAN,1,40
1,2,1.0,2,0.6640625,0.0,2.0,0.0,2.0,520.0195313,144.0429688,0.41796875,I I,0.871030446,1,F,20,NAN,1,41
1,2,2.0,3,0.658691406,1.0,2.0,2.0,0.0,553.2226563,105.46875,0.466796875,C C,1.196455242,1,F,20,NAN,1,42
1,1,1.0,2,0.571777344,1.0,1.0,1.0,0.0,426.2695313,145.5078125,0.426269531,C,0.997930423,1,F,20,NAN,1,43
1,2,2.0,4,0.471191406,1.0,1.0,1.0,0.0,372.0703125,99.12109375,0.372070313,C,1.535192682,1,F,20,NAN,1,44
1,1,1.0,2,0.561523438,1.0,1.0,1.0,0.0,366.2109375,195.3125,0.366210938,C,0.852055449,1,F,20,NAN,1,45
1,2,1.0,1,1.048339844,0.0,3.0,0.0,3.0,864.7460938,183.59375,0.581054688,I I I,1.290592871,1,F,20,NAN,1,46
1,2,2.0,4,0.503417969,1.0,1.0,1.0,0.0,409.6679688,93.75,0.409667969,C,1.592092671,1,F,20,NAN,1,47
1,1,1.0,2,0.494628906,1.0,2.0,2.0,0.0,317.8710938,176.7578125,0.196289063,C C,1.000130423,1,F,20,NAN,1,48
1,2,2.0,3,0.650878906,1.0,1.0,1.0,0.0,555.1757813,95.703125,0.555175781,C,1.079742763,1,F,20,NAN,1,49
1,1,1.0,3,0.501464844,1.0,1.0,1.0,0.0,369.6289063,131.8359375,0.369628906,C,1.105430404,1,F,20,NAN,1,50
1,2,2.0,4,0.554199219,1.0,1.0,1.0,0.0,418.9453125,135.2539063,0.418945313,C,1.202892741,1,F,20,NAN,1,51
1,1,1.0,1,0.568359375,1.0,1.0,1.0,0.0,394.53125,173.828125,0.39453125,C,0.841892951,1,F,20,NAN,1,52
1,1,1.0,1,0.97265625,1.0,2.0,2.0,0.0,810.0585938,162.5976563,0.556152344,C C,1.028992918,1,F,20,NAN,1,53
1,1,1.0,1,0.8125,1.0,2.0,1.0,1.0,682.1289063,130.3710938,0.56640625,I C,0.84625545,1,F,20,NAN,1,54
1,1,1.0,2,1.08203125,1.0,4.0,3.0,1.0,968.2617188,113.7695313,0.381835938,I C C C,1.027467918,1,F,20,NAN,1,55
1,1,1.0,1,0.759277344,1.0,1.0,1.0,0.0,635.2539063,124.0234375,0.635253906,C,0.971392928,1,F,20,NAN,1,56
1,2,2.0,3,0.584960938,1.0,1.0,1.0,0.0,487.7929688,97.16796875,0.487792969,C,1.418880202,1,F,20,NAN,1,57
1,1,1.0,1,0.576660156,1.0,1.0,1.0,0.0,452.1484375,124.5117188,0.452148438,C,0.857567948,1,F,20,NAN,1,58
1,2,2.0,2,0.538574219,1.0,1.0,1.0,0.0,397.9492188,140.625,0.397949219,C,1.130217754,1,F,20,NAN,1,59
1,2,2.0,4,0.510742188,1.0,1.0,1.0,0.0,393.0664063,117.6757813,0.393066406,C,1.204742741,1,F,20,NAN,1,60
1,2,2.0,3,0.865722656,1.0,2.0,2.0,0.0,735.8398438,129.8828125,0.4375,C C,1.931155111,1,F,20,NAN,1,61
1,1,1.0,1,0.498535156,1.0,1.0,1.0,0.0,331.0546875,167.4804688,0.331054688,C,1.18270539,1,F,20,NAN,1,62
1,2,2.0,4,0.515625,1.0,1.0,1.0,0.0,418.4570313,97.16796875,0.418457031,C,1.449880197,1,F,20,NAN,1,63
1,1,1.0,3,0.532226563,1.0,1.0,1.0,0.0,317.8710938,214.3554688,0.317871094,C,1.101230405,1,F,20,NAN,1,64
1,2,2.0,3,0.770996094,1.0,4.0,1.0,3.0,651.3671875,119.6289063,0.407226563,I I I C,0.970730283,1,F,20,NAN,1,65
1,2,1.0,1,0.56640625,0.0,1.0,0.0,1.0,309.5703125,256.8359375,0.309570313,I,1.01564292,1,F,20,NAN,1,66
1,2,2.0,4,0.563964844,1.0,1.0,1.0,0.0,440.4296875,123.5351563,0.440429688,C,1.124105255,1,F,20,NAN,1,67
1,1,1.0,1,0.661621094,1.0,3.0,3.0,0.0,545.8984375,115.7226563,0.331542969,C C C,0.945330433,1,F,20,NAN,1,68
1,1,1.0,1,0.639648438,1.0,2.0,2.0,0.0,524.9023438,114.7460938,0.452636719,C C,0.919730437,1,F,20,NAN,1,69
1,2,2.0,3,0.857421875,1.0,1.0,1.0,0.0,678.2226563,179.1992188,0.678222656,C,1.522492684,1,F,20,NAN,2,1
1,2,1.0,0,0.564453125,0.0,1.0,0.0,1.0,419.921875,144.53125,0.419921875,I,0.975167927,1,F,20,NAN,2,2
1,2,1.0,2,0.584472656,0.0,1.0,0.0,1.0,423.3398438,161.1328125,0.423339844,I,1.052317914,1,F,20,NAN,2,3
1,2,2.0,2,0.697753906,1.0,1.0,1.0,0.0,629.3945313,68.359375,0.629394531,C,1.286955226,1,F,20,NAN,2,4
1,2,2.0,4,0.525390625,1.0,1.0,1.0,0.0,440.9179688,84.47265625,0.440917969,C,1.536805181,1,F,20,NAN,2,5
1,1,1.0,3,0.669433594,1.0,1.0,1.0,0.0,456.0546875,213.3789063,0.456054688,C,0.976317927,1,F,20,NAN,2,6
1,1,1.0,3,0.631835938,1.0,1.0,1.0,0.0,492.1875,139.6484375,0.4921875,C,1.1278679,1,F,20,NAN,2,7
1,1,1.0,3,0.683105469,1.0,1.0,1.0,0.0,430.6640625,252.4414063,0.430664063,C,1.057030413,1,F,20,NAN,2,8
1,1,1.0,1,0.685058594,1.0,1.0,1.0,0.0,561.0351563,124.0234375,0.561035156,C,1.151217896,1,F,20,NAN,2,9
1,2,2.0,4,0.634765625,1.0,2.0,1.0,1.0,549.3164063,85.44921875,0.320800781,I C,1.076292764,1,F,20,NAN,2,10
1,1,1.0,2,0.524414063,1.0,1.0,1.0,0.0,418.9453125,105.46875,0.418945313,C,1.059530412,1,F,20,NAN,2,11
1,2,1.0,2,0.496582031,0.0,1.0,0.0,1.0,319.3359375,177.2460938,0.319335938,I,0.954355431,1,F,20,NAN,2,12
1,1,1.0,1,0.569335938,1.0,1.0,1.0,0.0,384.2773438,185.0585938,0.384277344,C,0.988230425,1,F,20,NAN,2,13
1,2,2.0,3,0.483886719,1.0,1.0,1.0,0.0,381.8359375,102.0507813,0.381835938,C,1.121292756,1,F,20,NAN,2,14
1,2,1.0,1,0.691894531,0.0,2.0,0.0,2.0,607.421875,84.47265625,0.422363281,I I,1.102930405,1,F,20,NAN,2,15
1,2,1.0,1,0.562011719,0.0,2.0,0.0,2.0,471.1914063,90.8203125,0.345703125,I I,1.134780399,1,F,20,NAN,2,16
1,2,2.0,4,0.567382813,1.0,1.0,1.0,0.0,481.9335938,85.44921875,0.481933594,C,1.458892695,1,F,20,NAN,2,17
1,1,1.0,3,0.944335938,1.0,2.0,2.0,0.0,737.7929688,206.5429688,0.303710938,C C,1.177067891,1,F,20,NAN,2,18
1,2,2.0,4,0.48828125,1.0,1.0,1.0,0.0,389.6484375,98.6328125,0.389648438,C,1.136280253,1,F,20,NAN,2,19
1,1,1.0,2,0.5390625,1.0,1.0,1.0,0.0,336.4257813,202.6367188,0.336425781,C,1.067892911,1,F,20,NAN,2,20
1,2,2.0,4,0.539550781,1.0,1.0,1.0,0.0,439.9414063,99.609375,0.439941406,C,1.043730269,1,F,20,NAN,2,21
1,1,1.0,4,0.536132813,1.0,1.0,1.0,0.0,410.6445313,125.4882813,0.410644531,C,0.852592949,1,F,20,NAN,2,22
1,2,2.0,4,0.525878906,1.0,1.0,1.0,0.0,409.1796875,116.6992188,0.409179688,C,0.918817792,1,F,20,NAN,2,23
1,1,1.0,4,0.396972656,1.0,1.0,1.0,0.0,305.6640625,91.30859375,0.305664063,C,1.027942918,1,F,20,NAN,2,24
1,1,1.0,4,0.541015625,1.0,1.0,1.0,0.0,400.8789063,140.1367188,0.400878906,C,1.068855411,1,F,20,NAN,2,25
1,1,1.0,3,0.474609375,1.0,1.0,1.0,0.0,365.234375,109.375,0.365234375,C,1.001530423,1,F,20,NAN,2,26
1,2,1.0,1,0.905273438,0.0,2.0,0.0,2.0,770.5078125,134.765625,0.461914063,I I,1.151517896,1,F,20,NAN,2,27
1,1,1.0,2,0.580566406,1.0,1.0,1.0,0.0,446.2890625,134.2773438,0.446289063,C,0.992017924,1,F,20,NAN,2,28
1,2,2.0,2,0.68359375,1.0,1.0,1.0,0.0,545.8984375,137.6953125,0.545898438,C,1.011430275,1,F,20,NAN,2,29
1,1,1.0,1,0.713867188,1.0,1.0,1.0,0.0,523.9257813,189.9414063,0.523925781,C,0.972017928,1,F,20,NAN,2,30
1,1,1.0,1,0.542480469,1.0,1.0,1.0,0.0,376.4648438,166.015625,0.376464844,C,0.916780438,1,F,20,NAN,2,31
1,1,1.0,1,0.633300781,1.0,1.0,1.0,0.0,532.2265625,101.0742188,0.532226563,C,0.925492936,1,F,20,NAN,2,32
1,2,2.0,4,0.521972656,1.0,1.0,1.0,0.0,386.71875,135.2539063,0.38671875,C,0.991767779,1,F,20,NAN,2,33
1,2,2.0,4,0.488769531,1.0,1.0,1.0,0.0,379.3945313,109.375,0.379394531,C,1.002355277,1,F,20,NAN,2,34
1,2,2.0,4,0.546875,1.0,1.0,1.0,0.0,430.1757813,116.6992188,0.430175781,C,0.942467788,1,F,20,NAN,2,35
1,1,1.0,1,0.620605469,1.0,2.0,2.0,0.0,507.3242188,113.28125,0.424316406,C C,1.060405412,1,F,20,NAN,2,36
1,2,2.0,4,0.609375,1.0,1.0,1.0,0.0,497.5585938,111.8164063,0.497558594,C,0.990830279,1,F,20,NAN,2,37
1,1,1.0,4,0.53515625,1.0,1.0,1.0,0.0,399.9023438,135.2539063,0.399902344,C,0.883630444,1,F,20,NAN,2,38
1,1,1.0,3,0.562988281,1.0,1.0,1.0,0.0,401.3671875,161.6210938,0.401367188,C,0.90544294,1,F,20,NAN,2,39
1,2,2.0,4,0.572753906,1.0,1.0,1.0,0.0,461.4257813,111.328125,0.461425781,C,0.994855278,1,F,20,NAN,2,40
1,2,1.0,0,0.847167969,0.0,1.0,0.0,1.0,664.0625,183.1054688,0.6640625,I,0.976067927,1,F,20,NAN,2,41
1,2,2.0,4,0.698242188,1.0,2.0,1.0,1.0,596.1914063,102.0507813,0.528320313,I C,0.98586778,1,F,20,NAN,2,42
1,1,1.0,1,0.734375,1.0,1.0,1.0,0.0,584.4726563,149.9023438,0.584472656,C,0.887992943,1,F,20,NAN,2,43
1,1,1.0,2,0.455078125,1.0,1.0,1.0,0.0,354.9804688,100.0976563,0.354980469,C,1.050467914,1,F,20,NAN,2,44
1,2,2.0,3,0.524414063,1.0,1.0,1.0,0.0,432.6171875,91.796875,0.432617188,C,1.158817749,1,F,20,NAN,2,45
1,1,1.0,1,0.4765625,1.0,1.0,1.0,0.0,301.7578125,174.8046875,0.301757813,C,1.106305404,1,F,20,NAN,2,46
1,2,2.0,4,0.556640625,1.0,2.0,1.0,1.0,483.8867188,72.75390625,0.372558594,I C,1.302105223,1,F,20,NAN,2,47
1,1,1.0,3,0.531738281,1.0,1.0,1.0,0.0,413.5742188,118.1640625,0.413574219,C,0.932305435,1,F,20,NAN,2,48
1,1,1.0,3,0.55078125,1.0,1.0,1.0,0.0,436.5234375,114.2578125,0.436523438,C,0.896180442,1,F,20,NAN,2,49
1,1,1.0,4,0.916992188,1.0,2.0,2.0,0.0,735.3515625,181.640625,0.466796875,C C,1.264992876,1,F,20,NAN,2,50
1,1,1.0,4,0.516601563,1.0,1.0,1.0,0.0,370.1171875,146.484375,0.370117188,C,1.044780415,1,F,20,NAN,2,51
1,2,2.0,4,0.49609375,1.0,1.0,1.0,0.0,375.0,121.09375,0.375,C,1.031267772,1,F,20,NAN,2,52
1,2,1.0,1,0.609375,0.0,1.0,0.0,1.0,479.4921875,129.8828125,0.479492188,I,1.156517895,1,F,20,NAN,2,53
1,2,2.0,1,0.729003906,1.0,1.0,1.0,0.0,635.2539063,93.75,0.635253906,C,1.157317749,1,F,20,NAN,2,54
1,2,2.0,4,0.882324219,1.0,3.0,3.0,0.0,760.2539063,122.0703125,0.416503906,C C C,1.511780186,1,F,20,NAN,2,55
1,1,1.0,3,0.630859375,1.0,1.0,1.0,0.0,480.9570313,149.9023438,0.480957031,C,1.061555412,1,F,20,NAN,2,56
1,2,1.0,1,0.557128906,0.0,1.0,0.0,1.0,422.8515625,134.2773438,0.422851563,I,0.980955426,1,F,20,NAN,2,57
1,1,1.0,2,0.94921875,1.0,2.0,1.0,1.0,869.6289063,79.58984375,0.422363281,I C,1.254680377,1,F,20,NAN,2,58
1,2,2.0,3,0.520996094,1.0,1.0,1.0,0.0,407.7148438,113.28125,0.407714844,C,1.164217748,1,F,20,NAN,2,59
1,1,1.0,2,0.552246094,1.0,1.0,1.0,0.0,341.3085938,210.9375,0.341308594,C,1.077792909,1,F,20,NAN,2,60
1,2,1.0,1,0.58984375,0.0,1.0,0.0,1.0,472.65625,117.1875,0.47265625,I,1.022480419,1,F,20,NAN,2,61
1,1,1.0,1,0.494628906,1.0,1.0,1.0,0.0,352.5390625,142.0898438,0.352539063,C,0.84786795,1,F,20,NAN,2,62
1,2,2.0,2,0.647949219,1.0,1.0,1.0,0.0,568.8476563,79.1015625,0.568847656,C,1.293342725,1,F,20,NAN,2,63
1,2,1.0,0,0.581054688,0.0,1.0,0.0,1.0,351.0742188,229.9804688,0.351074219,I,1.000280423,1,F,20,NAN,2,64
1,1,1.0,1,0.87109375,1.0,3.0,3.0,0.0,722.65625,148.4375,0.444824219,C C C,1.371480357,1,F,20,NAN,2,65
1,2,2.0,2,0.829101563,1.0,1.0,1.0,0.0,717.7734375,111.328125,0.717773438,C,0.916742792,1,F,20,NAN,2,66
1,2,1.0,1,0.659667969,0.0,2.0,0.0,2.0,452.1484375,207.5195313,0.322265625,I I,0.868380447,1,F,20,NAN,2,67
1,2,2.0,3,0.496582031,1.0,1.0,1.0,0.0,374.5117188,122.0703125,0.374511719,C,1.146405251,1,F,20,NAN,2,68
1,1,1.0,1,0.65234375,1.0,1.0,1.0,0.0,488.28125,164.0625,0.48828125,C,0.870880446,1,F,20,NAN,2,69
1,1,1.0,2,1.05859375,1.0,3.0,3.0,0.0,931.1523438,127.4414063,0.573242188,C C C,1.137930398,1,F,20,NAN,2,70
1,2,2.0,3,0.642578125,1.0,NAN,NAN,NAN,NAN,NAN,NAN,NAN,NAN,0,F,20,NAN,3,1
1,1,1.0,2,0.541015625,1.0,NAN,NAN,NAN,NAN,NAN,NAN,NAN,NAN,0,F,20,NAN,3,2
1,2,2.0,3,0.444335938,1.0,1.0,1.0,0.0,361.328125,83.0078125,0.361328125,C,1.195080242,1,F,20,NAN,3,3
1,2,2.0,1,0.766601563,1.0,2.0,2.0,0.0,579.5898438,187.0117188,0.353515625,C C,1.26434273,1,F,20,NAN,3,4
1,2,2.0,3,0.529296875,1.0,1.0,1.0,0.0,395.0195313,134.2773438,0.395019531,C,1.282867727,1,F,20,NAN,3,5
1,1,1.0,3,0.568847656,1.0,1.0,1.0,0.0,402.34375,166.5039063,0.40234375,C,0.842342951,1,F,20,NAN,3,6
1,1,1.0,1,0.864746094,1.0,3.0,3.0,0.0,771.484375,93.26171875,0.33984375,C C C,1.1291929,1,F,20,NAN,3,7
1,2,2.0,2,0.523925781,1.0,1.0,1.0,0.0,362.7929688,161.1328125,0.362792969,C,1.380767709,1,F,20,NAN,3,8
1,1,1.0,3,0.579101563,1.0,1.0,1.0,0.0,452.6367188,126.4648438,0.452636719,C,0.946855432,1,F,20,NAN,3,9
1,1,1.0,2,0.609375,1.0,1.0,1.0,0.0,504.8828125,104.4921875,0.504882813,C,1.006805422,1,F,20,NAN,3,10
1,1,1.0,1,0.876464844,1.0,2.0,2.0,0.0,788.0859375,88.37890625,0.506347656,C C,1.336542863,1,F,20,NAN,3,11
1,1,1.0,1,0.739746094,1.0,1.0,1.0,0.0,652.8320313,86.9140625,0.652832031,C,0.995867924,1,F,20,NAN,3,12
1,1,1.0,1,1.187011719,1.0,3.0,3.0,0.0,1041.503906,145.5078125,0.583984375,C C C,0.855842949,1,F,20,NAN,3,13
1,2,2.0,3,0.564941406,1.0,NAN,NAN,NAN,NAN,NAN,NAN,NAN,NAN,0,F,20,NAN,3,14
1,1,1.0,1,1.204589844,1.0,4.0,4.0,0.0,1101.074219,103.515625,0.368652344,C C C C,1.141080398,1,F,20,NAN,3,15
1,1,1.0,1,0.711914063,1.0,3.0,3.0,0.0,604.0039063,107.9101563,0.2265625,C C C,0.915580438,1,F,20,NAN,3,16
1,2,1.0,2,0.887695313,0.0,NAN,NAN,NAN,NAN,NAN,NAN,NAN,NAN,0,F,20,NAN,3,17
1,2,1.0,1,1.003417969,0.0,2.0,0.0,2.0,852.0507813,151.3671875,0.518554688,I I,1.113392903,1,F,20,NAN,3,18
1,2,2.0,3,0.483398438,1.0,NAN,NAN,NAN,NAN,NAN,NAN,NAN,NAN,0,F,20,NAN,3,19
1,2,2.0,3,0.598144531,1.0,NAN,NAN,NAN,NAN,NAN,NAN,NAN,NAN,0,F,20,NAN,3,20
1,1,1.0,2,0.487304688,1.0,1.0,1.0,0.0,353.515625,133.7890625,0.353515625,C,1.077992909,1,F,20,NAN,3,21
1,1,1.0,1,0.554199219,1.0,1.0,1.0,0.0,380.3710938,173.828125,0.380371094,C,1.034042917,1,F,20,NAN,3,22
1,2,2.0,3,0.508789063,1.0,NAN,NAN,NAN,NAN,NAN,NAN,NAN,NAN,0,F,20,NAN,3,23
1,1,1.0,1,0.924316406,1.0,3.0,3.0,0.0,821.7773438,102.5390625,0.297851563,C C C,1.262105376,1,F,20,NAN,3,24
1,2,2.0,3,0.458007813,1.0,NAN,NAN,NAN,NAN,NAN,NAN,NAN,NAN,0,F,20,NAN,3,25
1,1,1.0,2,0.571289063,1.0,2.0,2.0,0.0,477.5390625,93.75,0.408203125,C C,0.980942926,1,F,20,NAN,3,26
1,2,2.0,3,0.474121094,1.0,1.0,1.0,0.0,369.140625,104.9804688,0.369140625,C,1.243592734,1,F,20,NAN,3,27
1,2,1.0,0,0.443359375,0.0,1.0,0.0,1.0,184.0820313,259.2773438,0.184082031,I,0.883042944,1,F,20,NAN,3,28
1,2,1.0,0,0.646972656,0.0,1.0,0.0,1.0,550.2929688,96.6796875,0.550292969,I,0.892392942,1,F,20,NAN,3,29
1,1,2.0,3,0.689941406,0.0,NAN,NAN,NAN,NAN,NAN,NAN,NAN,NAN,0,F,20,NAN,3,30
1,2,2.0,3,0.581054688,1.0,NAN,NAN,NAN,NAN,NAN,NAN,NAN,NAN,0,F,20,NAN,3,31
1,2,1.0,1,0.873535156,0.0,1.0,0.0,1.0,722.65625,150.8789063,0.72265625,I,0.894805442,1,F,20,NAN,3,32
1,2,1.0,1,1.038085938,0.0,1.0,0.0,1.0,550.2929688,487.7929688,0.550292969,I,0.869605446,1,F,20,NAN,3,33
1,2,2.0,2,0.669921875,1.0,NAN,NAN,NAN,NAN,NAN,NAN,NAN,NAN,0,F,20,NAN,3,34
1,1,1.0,1,0.674804688,1.0,1.0,1.0,0.0,500.9765625,173.828125,0.500976563,C,1.103592904,1,F,20,NAN,3,35
1,2,2.0,2,0.575195313,1.0,1.0,1.0,0.0,470.2148438,104.9804688,0.470214844,C,1.089155261,1,F,20,NAN,3,36
1,1,1.0,1,0.898925781,1.0,2.0,1.0,1.0,796.3867188,102.5390625,0.470214844,I C,1.089867907,1,F,20,NAN,3,37
1,1,1.0,2,0.673828125,1.0,1.0,1.0,0.0,533.6914063,140.1367188,0.533691406,C,0.935167935,1,F,20,NAN,3,38
1,2,2.0,3,0.582519531,1.0,1.0,1.0,0.0,464.3554688,118.1640625,0.464355469,C,1.407342704,1,F,20,NAN,3,39
1,1,1.0,1,0.53125,1.0,1.0,1.0,0.0,314.9414063,216.3085938,0.314941406,C,0.894942942,1,F,20,NAN,3,40
1,1,1.0,1,0.605957031,1.0,1.0,1.0,0.0,462.4023438,143.5546875,0.462402344,C,0.84719295,1,F,20,NAN,3,41
1,1,1.0,1,1.018554688,1.0,2.0,2.0,0.0,901.8554688,116.6992188,0.596679688,C C,0.871130446,1,F,20,NAN,3,42
1,2,2.0,2,0.880859375,1.0,3.0,1.0,2.0,777.34375,103.515625,0.396972656,I I C,1.158292749,1,F,20,NAN,3,43
1,1,1.0,3,0.51953125,1.0,1.0,1.0,0.0,366.6992188,152.8320313,0.366699219,C,1.086355408,1,F,20,NAN,3,44
1,2,2.0,3,0.643066406,1.0,1.0,1.0,0.0,512.6953125,130.3710938,0.512695313,C,0.948730286,1,F,20,NAN,3,45
1,1,1.0,3,0.586425781,1.0,1.0,1.0,0.0,410.15625,176.2695313,0.41015625,C,0.95801793,1,F,20,NAN,3,46
1,2,2.0,3,0.47265625,1.0,1.0,1.0,0.0,359.8632813,112.7929688,0.359863281,C,1.166592747,1,F,20,NAN,3,47
1,1,1.0,2,0.650878906,1.0,1.0,1.0,0.0,496.09375,154.7851563,0.49609375,C,0.859805448,1,F,20,NAN,3,48
1,2,1.0,0,0.676757813,0.0,1.0,0.0,1.0,453.6132813,223.1445313,0.453613281,I,0.986817925,1,F,20,NAN,3,49
1,1,1.0,3,0.638671875,1.0,2.0,2.0,0.0,462.4023438,176.2695313,0.401367188,C C,0.85056795,1,F,20,NAN,3,50
1,2,2.0,3,0.594238281,1.0,1.0,1.0,0.0,454.1015625,140.1367188,0.454101563,C,1.309705222,1,F,20,NAN,3,51
1,2,2.0,4,0.600585938,1.0,1.0,1.0,0.0,427.2460938,173.3398438,0.427246094,C,1.289305226,1,F,20,NAN,3,52
1,1,1.0,2,0.731933594,1.0,1.0,1.0,0.0,487.3046875,244.6289063,0.487304688,C,0.878405445,1,F,20,NAN,3,53
1,2,2.0,3,0.724121094,1.0,1.0,1.0,0.0,623.046875,101.0742188,0.623046875,C,1.033355271,1,F,20,NAN,3,54
1,2,2.0,4,0.522949219,1.0,1.0,1.0,0.0,385.2539063,137.6953125,0.385253906,C,1.195255242,1,F,20,NAN,3,55
1,1,1.0,4,0.645019531,1.0,1.0,1.0,0.0,431.1523438,213.8671875,0.431152344,C,0.984130426,1,F,20,NAN,3,56
1,2,2.0,4,0.5546875,1.0,1.0,1.0,0.0,438.4765625,116.2109375,0.438476563,C,1.20791774,1,F,20,NAN,3,57
1,2,2.0,4,0.700195313,1.0,2.0,1.0,1.0,620.1171875,80.078125,0.313964844,I C,1.067192765,1,F,20,NAN,3,58
1,1,2.0,2,0.738769531,0.0,3.0,2.0,1.0,627.4414063,111.328125,0.428710938,C C I,0.92819279,1,F,20,NAN,3,59
1,2,2.0,2,0.543945313,1.0,1.0,1.0,0.0,376.953125,166.9921875,0.376953125,C,1.078642763,1,F,20,NAN,3,60
1,1,1.0,1,0.704589844,1.0,1.0,1.0,0.0,525.8789063,178.7109375,0.525878906,C,0.912230439,1,F,20,NAN,3,61
1,2,2.0,2,1.127929688,1.0,3.0,3.0,0.0,1033.691406,94.23828125,0.562011719,C C C,1.373355211,1,F,20,NAN,3,62
1,2,2.0,2,0.659667969,1.0,1.0,1.0,0.0,504.8828125,154.7851563,0.504882813,C,0.998317778,1,F,20,NAN,3,63
1,2,2.0,3,0.646484375,1.0,4.0,1.0,3.0,479.0039063,167.4804688,0.060058594,I I I C,1.176980246,1,F,20,NAN,3,64
1,1,2.0,1,1.405273438,0.0,6.0,2.0,4.0,1321.289063,83.984375,0.580566406,C C I I I I,1.514855185,1,F,20,NAN,3,65
1,2,2.0,2,0.889160156,1.0,2.0,1.0,1.0,760.7421875,128.4179688,0.6953125,I C,0.976255282,1,F,20,NAN,3,66
1,1,1.0,2,0.598144531,1.0,4.0,4.0,0.0,436.5234375,161.6210938,0.083496094,C C C C,1.100667905,1,F,20,NAN,3,67
1,2,1.0,0,0.667480469,0.0,2.0,0.0,2.0,558.59375,108.8867188,0.471679688,I I,0.949180432,1,F,20,NAN,3,68
1,1,1.0,1,0.571777344,1.0,1.0,1.0,0.0,457.5195313,114.2578125,0.457519531,C,0.996667924,1,F,20,NAN,3,69
1,1,1.0,1,0.62890625,1.0,1.0,1.0,0.0,384.765625,244.140625,0.384765625,C,0.988205425,1,F,20,NAN,3,70
1,1,1.0,0,0.915039063,1.0,NAN,NAN,NAN,NAN,NAN,NAN,NAN,NAN,0,F,20,NAN,4,1
1,2,2.0,3,0.509765625,1.0,1.0,1.0,0.0,354.9804688,154.7851563,0.354980469,C,1.510880186,1,F,20,NAN,4,2
1,2,1.0,1,0.586914063,0.0,2.0,0.0,2.0,457.03125,129.8828125,0.325683594,I I,1.049005414,1,F,20,NAN,4,3
1,2,2.0,2,0.904785156,1.0,3.0,2.0,1.0,810.0585938,94.7265625,0.303222656,I C C,1.362392712,1,F,20,NAN,4,4
1,2,1.0,1,1.051757813,0.0,2.0,0.0,2.0,910.15625,141.6015625,0.563476563,I I,0.984105426,1,F,20,NAN,4,5
1,2,2.0,2,0.525878906,1.0,NAN,NAN,NAN,NAN,NAN,NAN,NAN,NAN,0,F,20,NAN,4,6
1,1,1.0,3,0.837402344,1.0,NAN,NAN,NAN,NAN,NAN,NAN,NAN,NAN,0,F,20,NAN,4,7
1,1,1.0,4,0.582519531,1.0,NAN,NAN,NAN,NAN,NAN,NAN,NAN,NAN,0,F,20,NAN,4,8
1,1,1.0,2,0.555175781,1.0,2.0,2.0,0.0,431.640625,123.5351563,0.344726563,C C,0.916742938,1,F,20,NAN,4,9
1,1,1.0,2,0.889648438,1.0,2.0,2.0,0.0,794.921875,94.7265625,0.45703125,C C,1.117105402,1,F,20,NAN,4,10
1,2,1.0,0,0.686035156,0.0,3.0,0.0,3.0,501.4648438,184.5703125,0.060546875,I I I,0.932080435,1,F,20,NAN,4,11
1,1,1.0,3,0.677734375,1.0,3.0,2.0,1.0,523.4375,154.296875,0.075195313,I C C,0.892005442,1,F,20,NAN,4,12
1,2,2.0,4,0.513671875,1.0,1.0,1.0,0.0,378.4179688,135.2539063,0.378417969,C,1.102780259,1,F,20,NAN,4,13
1,1,1.0,3,0.596679688,1.0,1.0,1.0,0.0,367.6757813,229.0039063,0.367675781,C,0.874292945,1,F,20,NAN,4,14
1,1,1.0,3,0.592773438,1.0,1.0,1.0,0.0,407.7148438,185.0585938,0.407714844,C,0.890330443,1,F,20,NAN,4,15
1,2,1.0,1,0.824707031,0.0,2.0,1.0,1.0,698.7304688,125.9765625,0.556640625,C I,0.871380446,1,F,20,NAN,4,16
1,1,1.0,1,0.645507813,1.0,1.0,1.0,0.0,435.0585938,210.4492188,0.435058594,C,0.845905451,1,F,20,NAN,4,17
1,1,1.0,2,0.701171875,1.0,1.0,1.0,0.0,553.2226563,147.9492188,0.553222656,C,0.908630439,1,F,20,NAN,4,18
1,2,2.0,3,0.58203125,1.0,1.0,1.0,0.0,456.0546875,125.9765625,0.456054688,C,1.200592741,1,F,20,NAN,4,19
1,2,2.0,2,0.662597656,1.0,3.0,1.0,2.0,555.6640625,106.9335938,0.284179688,I I C,1.136192753,1,F,20,NAN,4,20
1,2,2.0,3,0.475585938,1.0,1.0,1.0,0.0,336.9140625,138.671875,0.336914063,C,1.413730203,1,F,20,NAN,4,21
1,1,1.0,4,0.504882813,1.0,1.0,1.0,0.0,338.8671875,166.015625,0.338867188,C,0.930880435,1,F,20,NAN,4,22
1,1,1.0,3,0.841796875,1.0,3.0,2.0,1.0,720.2148438,121.5820313,0.368652344,C I C,1.137480398,1,F,20,NAN,4,23
1,2,2.0,4,0.573730469,1.0,4.0,1.0,3.0,398.4375,175.2929688,0.270507813,I I C,1.128942754,1,F,20,NAN,4,24
1,1,1.0,3,0.598144531,1.0,3.0,3.0,0.0,446.7773438,151.3671875,0.216308594,C C C,0.940642934,1,F,20,NAN,4,25
1,2,1.0,1,0.774902344,0.0,3.0,0.0,3.0,606.4453125,168.4570313,0.359375,I I I,0.842442951,1,F,20,NAN,4,26
1,1,1.0,3,0.604492188,1.0,1.0,1.0,0.0,393.0664063,211.4257813,0.393066406,C,0.842455451,1,F,20,NAN,4,27
1,2,2.0,3,0.559082031,1.0,1.0,1.0,0.0,409.1796875,149.9023438,0.409179688,C,1.174980246,1,F,20,NAN,4,28
1,1,1.0,3,1.10546875,1.0,5.0,5.0,0.0,975.5859375,129.8828125,0.322265625,C C C C C,0.977230427,1,F,20,NAN,4,29
1,1,1.0,1,0.5859375,1.0,3.0,3.0,0.0,385.2539063,200.6835938,0.229003906,C C C,1.146342897,1,F,20,NAN,4,30
1,2,1.0,2,0.630859375,0.0,4.0,0.0,4.0,391.6015625,239.2578125,0.162597656,I I I I,1.037830416,1,F,20,NAN,4,31
1,1,1.0,3,0.626953125,1.0,2.0,2.0,0.0,280.2734375,346.6796875,0.125488281,C C,0.914742938,1,F,20,NAN,4,32
1,1,2.0,2,1.046386719,0.0,9.0,8.0,1.0,858.8867188,187.5,0.025390625,C C C C C C C C I,0.987892779,1,F,20,NAN,4,33
1,2,2.0,1,0.827636719,1.0,1.0,1.0,0.0,650.8789063,176.7578125,0.650878906,C,0.899167795,1,F,20,NAN,4,34
1,1,1.0,1,1.087890625,1.0,3.0,3.0,0.0,891.1132813,196.7773438,0.599121094,C C C,0.938092934,1,F,20,NAN,4,35
1,2,2.0,2,0.795898438,1.0,2.0,1.0,1.0,620.6054688,175.2929688,0.432617188,I C,0.909142794,1,F,20,NAN,4,36
1,1,1.0,1,0.602539063,1.0,1.0,1.0,0.0,429.1992188,173.3398438,0.429199219,C,0.929467936,1,F,20,NAN,4,37
1,1,2.0,1,0.697753906,0.0,2.0,0.0,2.0,588.8671875,108.8867188,0.362304688,I I,1.086817762,1,F,20,NAN,4,38
1,1,1.0,2,0.685546875,1.0,1.0,1.0,0.0,472.1679688,213.3789063,0.472167969,C,0.912192939,1,F,20,NAN,4,39
1,2,2.0,2,0.911621094,1.0,1.0,1.0,0.0,772.4609375,139.1601563,0.772460938,C,1.060630266,1,F,20,NAN,4,40
1,2,2.0,3,0.640136719,1.0,4.0,1.0,3.0,516.6015625,123.5351563,0.257324219,I I I C,0.920705291,1,F,20,NAN,4,41
1,1,1.0,3,0.56640625,1.0,3.0,3.0,0.0,450.1953125,116.2109375,0.219726563,C C C,0.967892929,1,F,20,NAN,4,42
1,2,1.0,0,0.663085938,0.0,1.0,0.0,1.0,539.0625,124.0234375,0.5390625,I,0.996205424,1,F,20,NAN,4,43
1,2,1.0,1,1.154296875,0.0,2.0,0.0,2.0,984.8632813,169.4335938,0.603027344,I I,0.844867951,1,F,20,NAN,4,44
1,1,1.0,2,0.683105469,1.0,1.0,1.0,0.0,479.9804688,203.125,0.479980469,C,0.90304294,1,F,20,NAN,4,45
1,2,2.0,4,0.515136719,1.0,1.0,1.0,0.0,392.578125,122.5585938,0.392578125,C,1.224592737,1,F,20,NAN,4,46
1,1,2.0,3,0.865234375,0.0,2.0,1.0,1.0,750.4882813,114.7460938,0.409179688,C I,1.180717745,1,F,20,NAN,4,47
1,2,2.0,4,0.569335938,1.0,1.0,1.0,0.0,427.2460938,142.0898438,0.427246094,C,1.105280258,1,F,20,NAN,4,48
1,1,1.0,4,0.789550781,1.0,2.0,2.0,0.0,621.5820313,167.96875,0.551757813,C C,1.107892904,1,F,20,NAN,4,49
1,2,2.0,4,0.609375,1.0,1.0,1.0,0.0,488.7695313,120.6054688,0.488769531,C,1.09923026,1,F,20,NAN,4,50
1,2,2.0,2,0.692382813,1.0,1.0,1.0,0.0,591.3085938,101.0742188,0.591308594,C,1.062455266,1,F,20,NAN,4,51
1,2,2.0,4,0.482910156,1.0,1.0,1.0,0.0,365.234375,117.6757813,0.365234375,C,1.030342772,1,F,20,NAN,4,52
1,1,1.0,4,0.575683594,1.0,1.0,1.0,0.0,407.7148438,167.96875,0.407714844,C,0.989205425,1,F,20,NAN,4,53
1,1,1.0,4,0.526855469,1.0,1.0,1.0,0.0,374.5117188,152.34375,0.374511719,C,1.087205407,1,F,20,NAN,4,54
1,1,1.0,2,0.655761719,1.0,1.0,1.0,0.0,544.921875,110.8398438,0.544921875,C,0.916867938,1,F,20,NAN,4,55
1,2,1.0,0,0.510253906,0.0,2.0,0.0,2.0,404.7851563,105.46875,0.310546875,I I,1.064667911,1,F,20,NAN,4,56
1,2,2.0,4,0.465332031,1.0,1.0,1.0,0.0,332.5195313,132.8125,0.332519531,C,1.027067772,1,F,20,NAN,4,57
1,1,1.0,3,0.606445313,1.0,2.0,2.0,0.0,516.6015625,89.84375,0.402832031,C C,0.967455429,1,F,20,NAN,4,58
1,1,1.0,3,0.616210938,1.0,1.0,1.0,0.0,512.6953125,103.515625,0.512695313,C,1.1292804,1,F,20,NAN,4,59
1,1,1.0,1,1.048828125,1.0,2.0,2.0,0.0,926.2695313,122.5585938,0.569824219,C C,1.021705419,1,F,20,NAN,4,60
1,1,1.0,2,0.640136719,1.0,1.0,1.0,0.0,475.5859375,164.5507813,0.475585938,C,1.112880403,1,F,20,NAN,4,61
1,1,1.0,1,0.688476563,1.0,2.0,2.0,0.0,464.3554688,224.1210938,0.354980469,C C,0.878030445,1,F,20,NAN,4,62
1,2,2.0,3,0.571777344,1.0,1.0,1.0,0.0,381.8359375,189.9414063,0.381835938,C,0.890642797,1,F,20,NAN,4,63
1,2,2.0,4,0.559082031,1.0,1.0,1.0,0.0,403.8085938,155.2734375,0.403808594,C,1.077692763,1,F,20,NAN,4,64
1,1,1.0,3,0.566894531,1.0,1.0,1.0,0.0,379.3945313,187.5,0.379394531,C,0.978480427,1,F,20,NAN,4,65
1,1,1.0,3,0.731445313,1.0,1.0,1.0,0.0,446.7773438,284.6679688,0.446777344,C,1.004117922,1,F,20,NAN,4,66
1,1,2.0,2,0.530761719,0.0,1.0,0.0,1.0,375.0,155.7617188,0.375,I,0.911442793,1,F,20,NAN,4,67
1,2,2.0,2,0.811035156,1.0,3.0,1.0,2.0,720.703125,90.33203125,0.361816406,I I C,1.009655276,1,F,20,NAN,4,68
1,2,1.0,1,0.557128906,0.0,1.0,0.0,1.0,400.390625,156.7382813,0.400390625,I,1.062105412,1,F,20,NAN,4,69
1,2,2.0,3,0.654296875,1.0,1.0,1.0,0.0,534.6679688,119.6289063,0.534667969,C,1.084417762,1,F,20,NAN,4,70
1,1,1.0,1,0.873535156,1.0,5.0,1.0,4.0,778.3203125,95.21484375,0.031738281,I I I I C,1.165192893,1,F,20,NAN,5,1
1,1,2.0,2,0.697753906,0.0,2.0,0.0,2.0,439.9414063,257.8125,0.321289063,I I,0.916255292,1,F,20,NAN,5,2
1,1,1.0,1,0.5625,1.0,1.0,1.0,0.0,414.5507813,147.9492188,0.414550781,C,0.892392942,1,F,20,NAN,5,3
1,2,1.0,0,0.460449219,0.0,1.0,0.0,1.0,300.2929688,160.15625,0.300292969,I,0.948742932,1,F,20,NAN,5,4
1,2,1.0,1,0.541015625,0.0,1.0,0.0,1.0,412.5976563,128.4179688,0.412597656,I,0.895555442,1,F,20,NAN,5,5
1,1,1.0,2,0.693847656,1.0,3.0,3.0,0.0,580.5664063,113.28125,0.322753906,C C C,0.988942925,1,F,20,NAN,5,6
1,1,2.0,1,1.041992188,0.0,NAN,NAN,NAN,NAN,NAN,NAN,NAN,NAN,0,F,20,NAN,5,7
1,1,1.0,2,0.649414063,1.0,NAN,NAN,NAN,NAN,NAN,NAN,NAN,NAN,0,F,20,NAN,5,8
1,2,2.0,3,0.504882813,1.0,NAN,NAN,NAN,NAN,NAN,NAN,NAN,NAN,0,F,20,NAN,5,9
1,1,1.0,2,0.620117188,1.0,1.0,1.0,0.0,454.1015625,166.015625,0.454101563,C,0.895942942,1,F,20,NAN,5,10
1,2,2.0,3,0.86328125,1.0,3.0,1.0,2.0,756.3476563,106.9335938,0.423339844,I C,0.968767783,1,F,20,NAN,5,11
1,1,1.0,2,0.573242188,1.0,1.0,1.0,0.0,456.5429688,116.6992188,0.456542969,C,0.929630436,1,F,20,NAN,5,12
1,2,2.0,3,0.597167969,1.0,1.0,1.0,0.0,478.515625,118.6523438,0.478515625,C,1.002880277,1,F,20,NAN,5,13
1,2,2.0,4,0.633789063,1.0,2.0,1.0,1.0,549.3164063,84.47265625,0.380371094,I C,1.142630252,1,F,20,NAN,5,14
1,1,1.0,3,0.5546875,1.0,1.0,1.0,0.0,352.0507813,202.6367188,0.352050781,C,0.957167931,1,F,20,NAN,5,15
1,2,2.0,4,0.471191406,1.0,1.0,1.0,0.0,352.0507813,119.140625,0.352050781,C,1.069255265,1,F,20,NAN,5,16
1,2,2.0,2,0.708007813,1.0,2.0,1.0,1.0,602.0507813,105.9570313,0.436523438,I C,1.110930257,1,F,20,NAN,5,17
1,1,1.0,2,0.956542969,1.0,2.0,2.0,0.0,868.1640625,88.37890625,0.550292969,C C,1.094517906,1,F,20,NAN,5,18
1,1,1.0,1,1.133789063,1.0,2.0,2.0,0.0,1031.25,102.5390625,0.619140625,C C,1.024905419,1,F,20,NAN,5,19
1,2,2.0,3,0.560058594,1.0,1.0,1.0,0.0,449.7070313,110.3515625,0.449707031,C,1.216867738,1,F,20,NAN,5,20
1,1,1.0,1,0.777832031,1.0,1.0,1.0,0.0,594.2382813,183.59375,0.594238281,C,0.865955447,1,F,20,NAN,5,21
1,1,1.0,1,0.729492188,1.0,1.0,1.0,0.0,548.828125,180.6640625,0.548828125,C,0.940967934,1,F,20,NAN,5,22
1,1,1.0,1,1.083007813,1.0,2.0,2.0,0.0,900.8789063,182.1289063,0.533203125,C C,0.85000545,1,F,20,NAN,5,23
1,1,1.0,1,0.592773438,1.0,1.0,1.0,0.0,438.4765625,154.296875,0.438476563,C,1.07021791,1,F,20,NAN,5,24
1,1,1.0,2,0.691894531,1.0,1.0,1.0,0.0,531.7382813,160.15625,0.531738281,C,1.01614292,1,F,20,NAN,5,25
1,2,2.0,3,0.524902344,1.0,1.0,1.0,0.0,410.15625,114.7460938,0.41015625,C,1.144680251,1,F,20,NAN,5,26
1,2,2.0,1,0.594238281,1.0,1.0,1.0,0.0,468.75,125.4882813,0.46875,C,0.915080292,1,F,20,NAN,5,27
1,1,1.0,2,0.587402344,1.0,1.0,1.0,0.0,447.7539063,139.6484375,0.447753906,C,1.026517918,1,F,20,NAN,5,28
1,2,2.0,2,0.823730469,1.0,2.0,1.0,1.0,722.1679688,101.5625,0.580078125,I C,1.048255269,1,F,20,NAN,5,29
1,1,1.0,1,0.761230469,1.0,2.0,2.0,0.0,594.2382813,166.9921875,0.493164063,C C,0.907792939,1,F,20,NAN,5,30
1,2,2.0,1,0.755371094,1.0,1.0,1.0,0.0,637.6953125,117.6757813,0.637695313,C,0.960517784,1,F,20,NAN,5,31
1,2,2.0,3,0.498046875,1.0,1.0,1.0,0.0,379.3945313,118.6523438,0.379394531,C,1.223955237,1,F,20,NAN,5,32
1,1,1.0,2,0.8203125,1.0,2.0,2.0,0.0,748.5351563,71.77734375,0.407226563,C C,1.364230358,1,F,20,NAN,5,33
1,2,2.0,2,0.581542969,1.0,NAN,NAN,NAN,NAN,NAN,NAN,NAN,NAN,0,F,20,NAN,5,34
1,1,1.0,3,0.530761719,1.0,1.0,1.0,0.0,355.46875,175.2929688,0.35546875,C,1.023992919,1,F,20,NAN,5,35
1,1,1.0,3,0.531738281,1.0,1.0,1.0,0.0,416.9921875,114.7460938,0.416992188,C,0.932592935,1,F,20,NAN,5,36
1,2,2.0,1,0.623535156,1.0,NAN,NAN,NAN,NAN,NAN,NAN,NAN,NAN,0,F,20,NAN,5,37
1,2,2.0,3,0.499511719,1.0,NAN,NAN,NAN,NAN,NAN,NAN,NAN,NAN,0,F,20,NAN,5,38
1,1,1.0,4,0.602539063,1.0,1.0,1.0,0.0,477.0507813,125.4882813,0.477050781,C,0.956142931,1,F,20,NAN,5,39
1,2,2.0,4,0.466796875,1.0,NAN,NAN,NAN,NAN,NAN,NAN,NAN,NAN,0,F,20,NAN,5,40
1,1,1.0,4,0.608886719,1.0,1.0,1.0,0.0,490.7226563,118.1640625,0.490722656,C,1.068292911,1,F,20,NAN,5,41
1,1,1.0,2,0.672851563,1.0,1.0,1.0,0.0,530.2734375,142.578125,0.530273438,C,0.865855447,1,F,20,NAN,5,42
1,2,1.0,1,0.520996094,0.0,1.0,0.0,1.0,322.7539063,198.2421875,0.322753906,I,0.934467935,1,F,20,NAN,5,43
1,2,2.0,3,0.524414063,1.0,NAN,NAN,NAN,NAN,NAN,NAN,NAN,NAN,0,F,20,NAN,5,44
1,2,2.0,3,0.506347656,1.0,NAN,NAN,NAN,NAN,NAN,NAN,NAN,NAN,0,F,20,NAN,5,45
1,2,2.0,4,0.538085938,1.0,NAN,NAN,NAN,NAN,NAN,NAN,NAN,NAN,0,F,20,NAN,5,46
1,2,2.0,2,0.953125,1.0,NAN,NAN,NAN,NAN,NAN,NAN,NAN,NAN,0,F,20,NAN,5,47
1,2,2.0,2,0.481445313,1.0,NAN,NAN,NAN,NAN,NAN,NAN,NAN,NAN,0,F,20,NAN,5,48
1,1,1.0,2,0.45703125,1.0,1.0,1.0,0.0,280.2734375,176.7578125,0.280273438,C,1.266455375,1,F,20,NAN,5,49
1,2,2.0,3,0.483398438,1.0,NAN,NAN,NAN,NAN,NAN,NAN,NAN,NAN,0,F,20,NAN,5,50
1,2,2.0,3,0.537109375,1.0,NAN,NAN,NAN,NAN,NAN,NAN,NAN,NAN,0,F,20,NAN,5,51
1,1,1.0,1,0.609863281,1.0,1.0,1.0,0.0,458.0078125,151.8554688,0.458007813,C,1.038855416,1,F,20,NAN,5,52
1,2,1.0,1,0.748046875,0.0,1.0,0.0,1.0,507.3242188,240.7226563,0.507324219,I,0.912730439,1,F,20,NAN,5,53
1,1,1.0,1,0.622070313,1.0,1.0,1.0,0.0,473.1445313,148.9257813,0.473144531,C,1.100967905,1,F,20,NAN,5,54
1,2,2.0,1,0.798828125,1.0,NAN,NAN,NAN,NAN,NAN,NAN,NAN,NAN,0,F,20,NAN,5,55
1,1,1.0,2,0.653808594,1.0,NAN,NAN,NAN,NAN,NAN,NAN,NAN,NAN,0,F,20,NAN,5,56
1,2,2.0,3,0.46875,1.0,1.0,1.0,0.0,375.4882813,93.26171875,0.375488281,C,1.329780218,1,F,20,NAN,5,57
1,1,1.0,1,0.582519531,1.0,3.0,3.0,0.0,414.5507813,167.96875,0.196777344,C C C,1.012192921,1,F,20,NAN,5,58
1,2,2.0,3,0.541992188,1.0,1.0,1.0,0.0,453.6132813,88.37890625,0.453613281,C,1.249792733,1,F,20,NAN,5,59
1,1,1.0,1,0.537597656,1.0,1.0,1.0,0.0,339.84375,197.7539063,0.33984375,C,1.059080412,1,F,20,NAN,5,60
1,2,1.0,0,0.522949219,0.0,1.0,0.0,1.0,438.4765625,84.47265625,0.438476563,I,1.180192891,1,F,20,NAN,5,61
1,1,1.0,1,0.668945313,1.0,1.0,1.0,0.0,571.7773438,97.16796875,0.571777344,C,1.035717917,1,F,20,NAN,5,62
1,2,2.0,4,0.502929688,1.0,1.0,1.0,0.0,382.8125,120.1171875,0.3828125,C,1.285817726,1,F,20,NAN,5,63
1,1,2.0,3,0.608886719,0.0,1.0,0.0,1.0,491.6992188,117.1875,0.491699219,I,1.157430249,1,F,20,NAN,5,64
1,1,1.0,1,0.461425781,1.0,1.0,1.0,0.0,309.0820313,152.34375,0.309082031,C,0.986067925,1,F,20,NAN,5,65
1,2,1.0,2,0.880371094,0.0,2.0,0.0,2.0,794.921875,85.44921875,0.484863281,I I,1.215730384,1,F,20,NAN,5,66
1,2,2.0,3,0.968261719,1.0,2.0,1.0,1.0,891.6015625,76.66015625,0.485839844,I C,1.427230201,1,F,20,NAN,5,67
1,2,1.0,1,0.753417969,0.0,1.0,0.0,1.0,620.6054688,132.8125,0.620605469,I,0.876480445,1,F,20,NAN,5,68
1,2,2.0,3,0.599121094,1.0,1.0,1.0,0.0,437.0117188,162.109375,0.437011719,C,0.937067789,1,F,20,NAN,5,69
1,2,2.0,3,0.550292969,1.0,1.0,1.0,0.0,413.0859375,137.2070313,0.413085938,C,1.074692764,1,F,20,NAN,5,70
2,1,2.0,2,0.662597656,0.0,NAN,NAN,NAN,NAN,NAN,NAN,NAN,NAN,0,H,20,NAN,1,1
2,2,2.0,1,0.714355469,1.0,NAN,NAN,NAN,NAN,NAN,NAN,NAN,NAN,0,H,20,NAN,1,2
2,1,1.0,2,0.916503906,1.0,1.0,1.0,0.0,620.1171875,296.3867188,0.620117188,C,1.07169291,1,H,20,NAN,1,3
2,2,2.0,2,0.873046875,1.0,NAN,NAN,NAN,NAN,NAN,NAN,NAN,NAN,0,H,20,NAN,1,4
2,2,2.0,1,0.990234375,1.0,1.0,1.0,0.0,879.3945313,110.8398438,0.879394531,C,1.086505262,1,H,20,NAN,1,5
2,2,2.0,1,0.861328125,1.0,1.0,1.0,0.0,728.515625,132.8125,0.728515625,C,0.92924279,1,H,20,NAN,1,6
2,1,1.0,2,0.966796875,1.0,NAN,NAN,NAN,NAN,NAN,NAN,NAN,NAN,0,H,20,NAN,1,7
2,2,2.0,2,1.085449219,1.0,2.0,2.0,0.0,947.265625,138.1835938,0.742675781,C C,1.190630243,1,H,20,NAN,1,8
2,1,2.0,2,0.90234375,0.0,1.0,0.0,1.0,745.1171875,157.2265625,0.745117188,I,1.033642771,1,H,20,NAN,1,9
2,2,2.0,1,1.157714844,1.0,2.0,1.0,1.0,1020.019531,137.6953125,0.500488281,I C,1.09694276,1,H,20,NAN,1,10
2,2,2.0,1,0.9140625,1.0,1.0,1.0,0.0,771.9726563,142.0898438,0.771972656,C,0.978230281,1,H,20,NAN,1,11
2,2,2.0,3,1.383789063,1.0,2.0,1.0,1.0,1198.730469,185.0585938,0.755371094,I C,1.015330275,1,H,20,NAN,1,12
2,1,1.0,2,0.830566406,1.0,2.0,2.0,0.0,685.546875,145.0195313,0.620117188,C C,0.929442936,1,H,20,NAN,1,13
2,1,1.0,1,1.408203125,1.0,NAN,NAN,NAN,NAN,NAN,NAN,NAN,NAN,0,H,20,NAN,1,14
2,1,2.0,1,1.418457031,0.0,5.0,3.0,2.0,1262.695313,155.7617188,0.680664063,C C C I I,0.967742783,1,H,20,NAN,1,15
2,1,1.0,1,1.309570313,1.0,NAN,NAN,NAN,NAN,NAN,NAN,NAN,NAN,0,H,20,NAN,1,16
2,2,1.0,3,1.430175781,0.0,NAN,NAN,NAN,NAN,NAN,NAN,NAN,NAN,0,H,20,NAN,1,17
2,1,1.0,3,0.802734375,1.0,1.0,1.0,0.0,704.5898438,98.14453125,0.704589844,C,1.044580415,1,H,20,NAN,1,18
2,2,NAN,4,NAN,NAN,NAN,NAN,NAN,NAN,NAN,NAN,NAN,NAN,0,H,20,NAN,1,19
2,2,NAN,2,NAN,NAN,NAN,NAN,NAN,NAN,NAN,NAN,NAN,NAN,0,H,20,NAN,1,20
2,1,1.0,3,0.62109375,1.0,1.0,1.0,0.0,532.2265625,88.8671875,0.532226563,C,1.111292903,1,H,20,NAN,1,21
2,1,1.0,1,1.009277344,1.0,1.0,1.0,0.0,810.546875,198.7304688,0.810546875,C,1.055692913,1,H,20,NAN,1,22
2,1,1.0,3,0.704101563,1.0,1.0,1.0,0.0,539.5507813,164.5507813,0.539550781,C,1.088255407,1,H,20,NAN,1,23
2,2,2.0,1,0.921386719,1.0,1.0,1.0,0.0,777.8320313,143.5546875,0.777832031,C,1.044430269,1,H,20,NAN,1,24
2,2,2.0,3,0.665527344,1.0,1.0,1.0,0.0,568.359375,97.16796875,0.568359375,C,1.270067729,1,H,20,NAN,1,25
2,1,1.0,3,0.620605469,1.0,1.0,1.0,0.0,480.9570313,139.6484375,0.480957031,C,0.894692942,1,H,20,NAN,1,26
2,1,1.0,1,0.974609375,1.0,1.0,1.0,0.0,854.4921875,120.1171875,0.854492188,C,1.062692912,1,H,20,NAN,1,27
2,1,2.0,1,0.937988281,0.0,1.0,0.0,1.0,827.6367188,110.3515625,0.827636719,I,1.064105266,1,H,20,NAN,1,28
2,2,2.0,2,0.6875,1.0,1.0,1.0,0.0,576.6601563,110.8398438,0.576660156,C,0.998217778,1,H,20,NAN,1,29
2,2,2.0,1,0.809570313,1.0,1.0,1.0,0.0,692.8710938,116.6992188,0.692871094,C,1.144780251,1,H,20,NAN,1,30
2,2,2.0,2,0.780273438,1.0,1.0,1.0,0.0,643.5546875,136.71875,0.643554688,C,1.182330245,1,H,20,NAN,1,31
2,1,1.0,2,0.668457031,1.0,1.0,1.0,0.0,575.1953125,93.26171875,0.575195313,C,0.948455432,1,H,20,NAN,1,32
2,1,1.0,3,0.603027344,1.0,1.0,1.0,0.0,461.9140625,141.1132813,0.461914063,C,0.921280437,1,H,20,NAN,1,33
2,2,2.0,1,1.195800781,1.0,2.0,2.0,0.0,1089.355469,106.4453125,0.810058594,C C,1.268992729,1,H,20,NAN,1,34
2,2,2.0,1,0.810058594,1.0,1.0,1.0,0.0,703.6132813,106.4453125,0.703613281,C,1.188742744,1,H,20,NAN,1,35
2,1,1.0,1,1.05078125,1.0,1.0,1.0,0.0,945.3125,105.46875,0.9453125,C,0.931505435,1,H,20,NAN,1,36
2,2,2.0,4,0.677246094,1.0,1.0,1.0,0.0,612.3046875,64.94140625,0.612304688,C,1.723255148,1,H,20,NAN,1,37
2,2,1.0,1,1.060546875,0.0,1.0,0.0,1.0,963.3789063,97.16796875,0.963378906,I,1.004530422,1,H,20,NAN,1,38
2,1,1.0,1,1.212890625,1.0,1.0,1.0,0.0,1073.730469,139.1601563,1.073730469,C,0.90456794,1,H,20,NAN,1,39
2,2,2.0,1,0.901367188,1.0,1.0,1.0,0.0,780.2734375,121.09375,0.780273438,C,0.92624279,1,H,20,NAN,1,40
2,2,2.0,1,1.244628906,1.0,1.0,1.0,0.0,1044.433594,200.1953125,1.044433594,C,1.004155277,1,H,20,NAN,1,41
2,2,2.0,1,1.300292969,1.0,1.0,1.0,0.0,1168.457031,131.8359375,1.168457031,C,1.219442738,1,H,20,NAN,1,42
2,1,1.0,2,0.983398438,1.0,2.0,1.0,1.0,804.1992188,179.1992188,0.640136719,I C,0.805317958,1,H,20,NAN,1,43
2,1,1.0,1,1.26953125,1.0,2.0,2.0,0.0,1152.34375,117.1875,1.038085938,C C,0.971267928,1,H,20,NAN,1,44
2,2,1.0,1,1.35546875,0.0,1.0,0.0,1.0,1083.984375,271.484375,1.083984375,I,0.984480426,1,H,20,NAN,1,45
2,1,2.0,1,1.4375,0.0,1.0,0.0,1.0,1337.402344,100.0976563,1.337402344,I,NAN,1,H,20,NAN,1,46
2,1,NAN,4,NAN,NAN,NAN,NAN,NAN,NAN,NAN,NAN,NAN,NAN,0,H,20,NAN,1,47
2,2,1.0,2,0.730957031,0.0,NAN,NAN,NAN,NAN,NAN,NAN,NAN,NAN,0,H,20,NAN,1,48
2,2,2.0,1,0.852050781,1.0,1.0,1.0,0.0,737.7929688,114.2578125,0.737792969,C,1.168692747,1,H,20,NAN,1,49
2,1,1.0,1,0.917480469,1.0,NAN,NAN,NAN,NAN,NAN,NAN,NAN,NAN,0,H,20,NAN,1,50
2,2,2.0,2,0.891113281,1.0,1.0,1.0,0.0,781.7382813,109.375,0.781738281,C,1.21060524,1,H,20,NAN,1,51
2,2,2.0,2,0.984863281,1.0,1.0,1.0,0.0,831.5429688,153.3203125,0.831542969,C,1.300142724,1,H,20,NAN,1,52
2,1,1.0,1,0.735839844,1.0,1.0,1.0,0.0,624.5117188,111.328125,0.624511719,C,0.899592941,1,H,20,NAN,1,53
2,2,2.0,3,0.825683594,1.0,1.0,1.0,0.0,761.2304688,64.453125,0.761230469,C,1.387467708,1,H,20,NAN,1,54
2,2,2.0,2,0.998535156,1.0,1.0,1.0,0.0,872.0703125,126.4648438,0.872070313,C,0.990592779,1,H,20,NAN,1,55
2,1,1.0,3,0.613769531,1.0,1.0,1.0,0.0,509.765625,104.0039063,0.509765625,C,0.853192949,1,H,20,NAN,1,56
2,1,1.0,3,0.672363281,1.0,1.0,1.0,0.0,554.6875,117.6757813,0.5546875,C,0.838442952,1,H,20,NAN,1,57
2,2,2.0,3,0.637207031,1.0,1.0,1.0,0.0,553.7109375,83.49609375,0.553710938,C,1.193130243,1,H,20,NAN,1,58
2,2,1.0,1,1.163574219,0.0,1.0,0.0,1.0,1070.3125,93.26171875,1.0703125,I,0.871842946,1,H,20,NAN,1,59
2,1,2.0,2,1.48046875,0.0,1.0,0.0,1.0,1385.253906,95.21484375,1.385253906,I,NAN,1,H,20,NAN,1,60
2,2,2.0,3,0.689453125,1.0,1.0,1.0,0.0,563.9648438,125.4882813,0.563964844,C,1.016705274,1,H,20,NAN,1,61
2,1,2.0,3,1.000976563,0.0,1.0,0.0,1.0,895.0195313,105.9570313,0.895019531,I,0.853517803,1,H,20,NAN,1,62
2,1,2.0,1,1.334472656,0.0,1.0,0.0,1.0,1243.164063,91.30859375,1.243164063,I,1.065892765,1,H,20,NAN,1,63
2,2,2.0,1,1.189941406,1.0,1.0,1.0,0.0,1081.054688,108.8867188,1.081054688,C,1.100080259,1,H,20,NAN,1,64
2,2,1.0,1,0.884277344,0.0,1.0,0.0,1.0,785.15625,99.12109375,0.78515625,I,0.925405436,1,H,20,NAN,1,65
2,2,2.0,2,1.38671875,1.0,1.0,1.0,0.0,1261.71875,125.0,1.26171875,C,0.98735528,1,H,20,NAN,1,66
2,2,2.0,2,0.936035156,1.0,1.0,1.0,0.0,778.3203125,157.7148438,0.778320313,C,0.8705053,1,H,20,NAN,1,67
2,1,1.0,0,0.91015625,1.0,2.0,1.0,1.0,764.1601563,145.9960938,0.794433594,C,0.803567958,1,H,20,NAN,1,68
2,2,2.0,1,0.733398438,1.0,1.0,1.0,0.0,657.2265625,76.171875,0.657226563,C,1.285342726,1,H,20,NAN,1,69
2,1,2.0,2,0.888183594,0.0,1.0,0.0,1.0,733.3984375,154.7851563,0.733398438,I,1.115055257,1,H,20,NAN,2,1
2,2,2.0,2,0.754882813,1.0,1.0,1.0,0.0,644.0429688,110.8398438,0.644042969,C,1.011242775,1,H,20,NAN,2,2
2,2,2.0,1,0.863769531,1.0,1.0,1.0,0.0,757.8125,105.9570313,0.7578125,C,0.988192779,1,H,20,NAN,2,3
2,2,2.0,3,1.019042969,1.0,1.0,1.0,0.0,856.4453125,162.5976563,0.856445313,C,0.847355305,1,H,20,NAN,2,4
2,2,2.0,4,0.591308594,1.0,1.0,1.0,0.0,503.90625,87.40234375,0.50390625,C,1.329692718,1,H,20,NAN,2,5
2,1,1.0,4,1.216796875,1.0,2.0,2.0,0.0,1122.070313,94.7265625,0.786621094,C C,0.946830432,1,H,20,NAN,2,6
2,1,1.0,4,0.704101563,1.0,NAN,NAN,NAN,NAN,NAN,NAN,NAN,NAN,0,H,20,NAN,2,7
2,2,2.0,3,0.741210938,1.0,1.0,1.0,0.0,606.9335938,134.2773438,0.606933594,C,0.959792784,1,H,20,NAN,2,8
2,2,2.0,3,0.962402344,1.0,2.0,2.0,0.0,825.1953125,137.2070313,0.595703125,C C,1.108942758,1,H,20,NAN,2,9
2,2,2.0,4,0.814941406,1.0,1.0,1.0,0.0,690.4296875,124.5117188,0.690429688,C,1.089630261,1,H,20,NAN,2,10
2,2,2.0,4,0.646484375,1.0,1.0,1.0,0.0,513.1835938,133.3007813,0.513183594,C,0.918980292,1,H,20,NAN,2,11
2,1,2.0,4,0.799316406,0.0,1.0,0.0,1.0,686.0351563,113.28125,0.686035156,I,0.975255282,1,H,20,NAN,2,12
2,2,2.0,3,1.149414063,1.0,3.0,3.0,0.0,1025.390625,124.0234375,0.506347656,C C C,0.890355297,1,H,20,NAN,2,13
2,2,2.0,3,0.914550781,1.0,1.0,1.0,0.0,778.8085938,135.7421875,0.778808594,C,0.8750053,1,H,20,NAN,2,14
2,1,1.0,3,1.045898438,1.0,1.0,1.0,0.0,904.296875,141.6015625,0.904296875,C,0.862655448,1,H,20,NAN,2,15
2,2,2.0,2,1.165039063,1.0,2.0,2.0,0.0,1051.269531,113.7695313,0.797363281,C C,0.884880298,1,H,20,NAN,2,16
2,2,1.0,1,1.325683594,0.0,1.0,0.0,1.0,1222.167969,103.515625,1.222167969,I,1.027880418,1,H,20,NAN,2,17
2,1,2.0,2,0.769042969,0.0,1.0,0.0,1.0,652.8320313,116.2109375,0.652832031,I,1.052017768,1,H,20,NAN,2,18
2,1,1.0,4,1.486328125,1.0,3.0,3.0,0.0,1404.785156,81.54296875,0.834472656,C C C,NAN,1,H,20,NAN,2,19
2,2,2.0,3,1.303710938,1.0,3.0,3.0,0.0,1209.472656,94.23828125,0.603027344,C C C,1.129017754,1,H,20,NAN,2,20
2,1,1.0,4,0.849121094,1.0,1.0,1.0,0.0,713.3789063,135.7421875,0.713378906,C,1.224830383,1,H,20,NAN,2,21
2,2,2.0,4,0.56640625,1.0,1.0,1.0,0.0,438.9648438,127.4414063,0.438964844,C,0.906367794,1,H,20,NAN,2,22
2,1,1.0,4,0.546875,1.0,1.0,1.0,0.0,417.4804688,129.3945313,0.417480469,C,0.899742941,1,H,20,NAN,2,23
2,1,1.0,4,0.774902344,1.0,1.0,1.0,0.0,650.8789063,124.0234375,0.650878906,C,0.860192948,1,H,20,NAN,2,24
2,2,2.0,4,0.646972656,1.0,1.0,1.0,0.0,549.8046875,97.16796875,0.549804688,C,1.028242772,1,H,20,NAN,2,25
2,2,1.0,3,0.863769531,0.0,1.0,0.0,1.0,696.2890625,167.4804688,0.696289063,I,0.882730444,1,H,20,NAN,2,26
2,1,1.0,4,0.558105469,1.0,1.0,1.0,0.0,437.0117188,121.09375,0.437011719,C,0.944605433,1,H,20,NAN,2,27
2,1,1.0,4,0.480957031,1.0,1.0,1.0,0.0,367.6757813,113.28125,0.367675781,C,1.032067917,1,H,20,NAN,2,28
2,1,1.0,4,0.475097656,1.0,1.0,1.0,0.0,358.8867188,116.2109375,0.358886719,C,0.931605435,1,H,20,NAN,2,29
2,1,1.0,4,0.5078125,1.0,1.0,1.0,0.0,393.5546875,114.2578125,0.393554688,C,0.929180436,1,H,20,NAN,2,30
2,1,1.0,3,0.732421875,1.0,1.0,1.0,0.0,610.8398438,121.5820313,0.610839844,C,1.036180417,1,H,20,NAN,2,31
2,1,NAN,0,NAN,NAN,NAN,NAN,NAN,NAN,NAN,NAN,NAN,NAN,0,H,20,NAN,2,32
2,2,2.0,2,0.703125,1.0,1.0,1.0,0.0,607.9101563,95.21484375,0.607910156,C,1.305830223,1,H,20,NAN,2,33
2,2,2.0,1,0.868652344,1.0,1.0,1.0,0.0,733.8867188,134.765625,0.733886719,C,0.822242809,1,H,20,NAN,2,34
2,1,1.0,3,0.806640625,1.0,1.0,1.0,0.0,683.59375,123.046875,0.68359375,C,0.981555426,1,H,20,NAN,2,35
2,2,2.0,3,0.959960938,1.0,2.0,2.0,0.0,867.1875,92.7734375,0.672851563,C C,0.911067793,1,H,20,NAN,2,36
2,1,1.0,2,1.143554688,1.0,1.0,1.0,0.0,966.3085938,177.2460938,0.966308594,C,0.901317941,1,H,20,NAN,2,37
2,1,1.0,3,1.069335938,1.0,1.0,1.0,0.0,940.4296875,128.90625,0.940429688,C,0.886555443,1,H,20,NAN,2,38
2,2,2.0,3,1.158203125,1.0,2.0,2.0,0.0,1051.269531,106.9335938,0.778320313,C C,0.894030296,1,H,20,NAN,2,39
2,2,2.0,3,0.712890625,1.0,1.0,1.0,0.0,603.0273438,109.8632813,0.603027344,C,0.852655304,1,H,20,NAN,2,40
2,2,2.0,2,1.218261719,1.0,2.0,2.0,0.0,1110.351563,107.9101563,0.823242188,C C,0.826017808,1,H,20,NAN,2,41
2,2,2.0,2,0.822753906,1.0,1.0,1.0,0.0,677.2460938,145.5078125,0.677246094,C,1.007442776,1,H,20,NAN,2,42
2,1,1.0,3,0.861816406,1.0,2.0,1.0,1.0,666.9921875,194.8242188,0.706542969,C,0.951717932,1,H,20,NAN,2,43
2,1,1.0,2,0.808105469,1.0,1.0,1.0,0.0,636.71875,171.3867188,0.63671875,C,0.839455452,1,H,20,NAN,2,44
2,1,1.0,1,0.769042969,1.0,1.0,1.0,0.0,664.5507813,104.4921875,0.664550781,C,0.84776795,1,H,20,NAN,2,45
2,2,2.0,2,0.914550781,1.0,1.0,1.0,0.0,741.6992188,172.8515625,0.741699219,C,0.92615529,1,H,20,NAN,2,46
2,2,2.0,3,0.678222656,1.0,1.0,1.0,0.0,576.171875,102.0507813,0.576171875,C,0.955055285,1,H,20,NAN,2,47
2,2,1.0,3,0.958984375,0.0,1.0,0.0,1.0,774.4140625,184.5703125,0.774414063,I,0.939567934,1,H,20,NAN,2,48
2,1,1.0,4,0.58203125,1.0,1.0,1.0,0.0,483.3984375,98.6328125,0.483398438,C,1.110192903,1,H,20,NAN,2,49
2,1,1.0,1,0.972167969,1.0,1.0,1.0,0.0,778.3203125,193.8476563,0.778320313,C,0.811767957,1,H,20,NAN,2,50
2,1,1.0,4,0.767578125,1.0,1.0,1.0,0.0,574.7070313,192.8710938,0.574707031,C,0.787280461,1,H,20,NAN,2,51
2,2,2.0,2,1.057617188,1.0,1.0,1.0,0.0,924.8046875,132.8125,0.924804688,C,0.827542808,1,H,20,NAN,2,52
2,2,2.0,1,1.29296875,1.0,2.0,2.0,0.0,1176.757813,116.2109375,0.925292969,C C,1.022517773,1,H,20,NAN,2,53
2,2,2.0,2,0.647460938,1.0,1.0,1.0,0.0,544.4335938,103.0273438,0.544433594,C,1.128780254,1,H,20,NAN,2,54
2,1,1.0,3,0.803710938,1.0,1.0,1.0,0.0,710.9375,92.7734375,0.7109375,C,0.953442931,1,H,20,NAN,2,55
2,1,1.0,4,0.559082031,1.0,2.0,1.0,1.0,415.5273438,143.5546875,0.352539063,I C,0.826892954,1,H,20,NAN,2,56
2,2,2.0,1,0.559570313,1.0,1.0,1.0,0.0,477.5390625,82.03125,0.477539063,C,1.189130243,1,H,20,NAN,2,57
2,1,1.0,4,0.642089844,1.0,1.0,1.0,0.0,517.0898438,125.0,0.517089844,C,0.954330431,1,H,20,NAN,2,58
2,2,2.0,1,1.007324219,1.0,1.0,1.0,0.0,913.0859375,94.23828125,0.913085938,C,1.220967738,1,H,20,NAN,2,59
2,2,1.0,1,1.071289063,0.0,2.0,0.0,2.0,974.1210938,97.16796875,0.665527344,I I,1.1285179,1,H,20,NAN,2,60
2,1,1.0,2,0.83203125,1.0,1.0,1.0,0.0,696.7773438,135.2539063,0.696777344,C,0.982405426,1,H,20,NAN,2,61
2,1,1.0,3,0.69921875,1.0,1.0,1.0,0.0,591.796875,107.421875,0.591796875,C,1.048517914,1,H,20,NAN,2,62
2,1,2.0,2,0.709960938,0.0,1.0,0.0,1.0,575.6835938,134.2773438,0.575683594,I,0.98235528,1,H,20,NAN,2,63
2,2,2.0,2,0.66796875,1.0,1.0,1.0,0.0,567.8710938,100.0976563,0.567871094,C,1.064205266,1,H,20,NAN,2,64
2,2,1.0,1,0.665039063,0.0,1.0,1.0,0.0,NAN,NAN,NAN,I,1.059430412,0,H,20,NAN,2,65
2,1,1.0,4,0.866699219,1.0,1.0,1.0,0.0,736.8164063,129.8828125,0.736816406,C,0.934355435,1,H,20,NAN,2,66
2,1,1.0,4,0.627929688,1.0,1.0,1.0,0.0,545.8984375,82.03125,0.545898438,C,1.029605418,1,H,20,NAN,2,67
2,1,1.0,2,1.006835938,1.0,1.0,1.0,0.0,898.9257813,107.9101563,0.898925781,C,0.986692925,1,H,20,NAN,2,68
2,1,1.0,4,0.577636719,1.0,1.0,1.0,0.0,469.2382813,108.3984375,0.469238281,C,0.949917932,1,H,20,NAN,2,69
2,2,2.0,1,1.25,1.0,2.0,2.0,0.0,1144.042969,105.9570313,0.85546875,C C,0.999492777,1,H,20,NAN,2,70
2,2,1.0,2,0.678222656,0.0,1.0,0.0,1.0,568.359375,109.8632813,0.568359375,I,1.229317882,1,H,20,NAN,3,1
2,1,1.0,1,0.687011719,1.0,1.0,1.0,0.0,579.1015625,107.9101563,0.579101563,C,1.310355367,1,H,20,NAN,3,2
2,2,2.0,3,0.725097656,1.0,1.0,1.0,0.0,604.0039063,121.09375,0.604003906,C,1.145942751,1,H,20,NAN,3,3
2,2,2.0,2,0.737792969,1.0,1.0,1.0,0.0,646.484375,91.30859375,0.646484375,C,0.987717779,1,H,20,NAN,3,4
2,2,2.0,1,0.865234375,1.0,1.0,1.0,0.0,766.6015625,98.6328125,0.766601563,C,1.017730274,1,H,20,NAN,3,5
2,2,2.0,4,0.784667969,1.0,1.0,1.0,0.0,660.15625,124.5117188,0.66015625,C,0.856792803,1,H,20,NAN,3,6
2,1,2.0,1,0.884765625,0.0,1.0,0.0,1.0,765.625,119.140625,0.765625,I,0.959242785,1,H,20,NAN,3,7
2,1,2.0,1,0.815917969,0.0,1.0,0.0,1.0,709.9609375,105.9570313,0.709960938,I,0.948867786,1,H,20,NAN,3,8
2,1,2.0,1,0.649414063,0.0,1.0,0.0,1.0,555.6640625,93.75,0.555664063,I,0.997880278,1,H,20,NAN,3,9
2,2,2.0,3,0.614746094,1.0,1.0,1.0,0.0,546.875,67.87109375,0.546875,C,1.222992737,1,H,20,NAN,3,10
2,1,2.0,2,0.757324219,0.0,1.0,0.0,1.0,646.9726563,110.3515625,0.646972656,I,1.028905272,1,H,20,NAN,3,11
2,2,2.0,1,1.173828125,1.0,1.0,1.0,0.0,1019.53125,154.296875,1.01953125,C,0.890192797,1,H,20,NAN,3,12
2,1,2.0,1,1.369140625,0.0,1.0,0.0,1.0,1250.0,119.140625,1.25,I,1.128517754,1,H,20,NAN,3,13
2,2,2.0,2,1.28515625,1.0,1.0,1.0,0.0,1144.042969,141.1132813,1.144042969,C,1.03981777,1,H,20,NAN,3,14
2,2,NAN,1,NAN,NAN,NAN,NAN,NAN,NAN,NAN,NAN,NAN,NAN,0,H,20,NAN,3,15
2,2,2.0,1,0.695800781,1.0,1.0,1.0,0.0,583.984375,111.8164063,0.583984375,C,0.992805279,1,H,20,NAN,3,16
2,2,1.0,1,1.474121094,0.0,1.0,0.0,1.0,1338.378906,135.7421875,1.338378906,I,NAN,1,H,20,NAN,3,17
2,1,1.0,3,0.810058594,1.0,1.0,1.0,0.0,702.1484375,107.9101563,0.702148438,C,0.868892946,1,H,20,NAN,3,18
2,2,2.0,4,0.6640625,1.0,1.0,1.0,0.0,576.6601563,87.40234375,0.576660156,C,0.940605288,1,H,20,NAN,3,19
2,2,2.0,2,0.993652344,1.0,1.0,1.0,0.0,896.484375,97.16796875,0.896484375,C,1.017055274,1,H,20,NAN,3,20
2,2,2.0,2,0.855957031,1.0,1.0,1.0,0.0,756.3476563,99.609375,0.756347656,C,0.824280309,1,H,20,NAN,3,21
2,2,1.0,1,1.404785156,0.0,NAN,NAN,NAN,NAN,NAN,NAN,NAN,NAN,0,H,20,NAN,3,22
2,2,2.0,3,1.34765625,1.0,3.0,3.0,0.0,1158.203125,189.453125,0.64453125,C C C,1.015305275,1,H,20,NAN,3,23
2,2,2.0,2,0.729003906,1.0,NAN,NAN,NAN,NAN,NAN,NAN,NAN,NAN,0,H,20,NAN,3,24
2,2,2.0,4,0.911132813,1.0,NAN,NAN,NAN,NAN,NAN,NAN,NAN,NAN,0,H,20,NAN,3,25
2,2,2.0,3,0.943359375,1.0,NAN,NAN,NAN,NAN,NAN,NAN,NAN,NAN,0,H,20,NAN,3,26
2,2,NAN,0,NAN,NAN,NAN,NAN,NAN,NAN,NAN,NAN,NAN,NAN,0,H,20,NAN,3,27
2,1,1.0,3,0.776367188,1.0,1.0,1.0,0.0,592.2851563,184.0820313,0.592285156,C,1.068592911,1,H,20,NAN,3,28
2,1,1.0,2,0.951171875,1.0,1.0,1.0,0.0,750.9765625,200.1953125,0.750976563,C,0.987655425,1,H,20,NAN,3,29
2,2,2.0,2,0.905761719,1.0,1.0,1.0,0.0,793.9453125,111.8164063,0.793945313,C,1.205105241,1,H,20,NAN,3,30
2,2,2.0,3,0.833496094,1.0,1.0,1.0,0.0,706.0546875,127.4414063,0.706054688,C,0.922605291,1,H,20,NAN,3,31
2,2,2.0,1,1.197753906,1.0,1.0,1.0,0.0,1062.988281,134.765625,1.062988281,C,0.8729428,1,H,20,NAN,3,32
2,1,1.0,4,0.611816406,1.0,1.0,1.0,0.0,458.984375,152.8320313,0.458984375,C,0.972567928,1,H,20,NAN,3,33
2,2,2.0,3,0.784667969,1.0,1.0,1.0,0.0,702.1484375,82.51953125,0.702148438,C,0.980417781,1,H,20,NAN,3,34
2,1,1.0,3,0.916503906,1.0,1.0,1.0,0.0,772.9492188,143.5546875,0.772949219,C,0.915455438,1,H,20,NAN,3,35
2,2,2.0,2,0.869628906,1.0,1.0,1.0,0.0,735.3515625,134.2773438,0.735351563,C,0.821492809,1,H,20,NAN,3,36
2,2,2.0,1,1.056640625,1.0,1.0,1.0,0.0,968.2617188,88.37890625,0.968261719,C,0.978780281,1,H,20,NAN,3,37
2,1,1.0,1,1.055175781,1.0,1.0,1.0,0.0,913.5742188,141.6015625,0.913574219,C,0.979630427,1,H,20,NAN,3,38
2,1,2.0,1,0.720214844,0.0,1.0,0.0,1.0,623.046875,97.16796875,0.623046875,I,1.059755267,1,H,20,NAN,3,39
2,2,1.0,1,0.930664063,0.0,1.0,0.0,1.0,753.4179688,177.2460938,0.753417969,I,0.79229296,1,H,20,NAN,3,40
2,1,1.0,2,0.930175781,1.0,1.0,1.0,0.0,800.2929688,129.8828125,0.800292969,C,1.025680418,1,H,20,NAN,3,41
2,1,2.0,3,0.864257813,0.0,1.0,0.0,1.0,769.0429688,95.21484375,0.769042969,I,1.240455234,1,H,20,NAN,3,42
2,1,2.0,1,0.972167969,0.0,1.0,0.0,1.0,890.1367188,82.03125,0.890136719,I,1.016292774,1,H,20,NAN,3,43
2,1,1.0,1,1.285644531,1.0,1.0,1.0,0.0,1182.617188,103.0273438,1.182617188,C,1.092655406,1,H,20,NAN,3,44
2,2,2.0,2,0.748046875,1.0,1.0,1.0,0.0,663.5742188,84.47265625,0.663574219,C,1.006155276,1,H,20,NAN,3,45
2,2,1.0,1,1.334960938,0.0,1.0,0.0,1.0,1216.796875,118.1640625,1.216796875,I,1.285167872,1,H,20,NAN,3,46
2,2,2.0,2,1.118164063,1.0,2.0,2.0,0.0,988.28125,129.8828125,0.766601563,C C,1.163730248,1,H,20,NAN,3,47
2,1,1.0,4,0.768066406,1.0,2.0,2.0,0.0,606.4453125,161.6210938,0.498046875,C C,1.18309289,1,H,20,NAN,3,48
2,1,1.0,4,0.912597656,1.0,1.0,1.0,0.0,785.15625,127.4414063,0.78515625,C,1.07144291,1,H,20,NAN,3,49
2,1,1.0,4,0.572753906,1.0,1.0,1.0,0.0,440.9179688,131.8359375,0.440917969,C,1.221255383,1,H,20,NAN,3,50
2,2,1.0,4,1.358398438,0.0,1.0,0.0,1.0,1157.226563,201.171875,1.157226563,I,1.122805401,1,H,20,NAN,3,51
2,2,2.0,4,0.872558594,1.0,1.0,1.0,0.0,774.9023438,97.65625,0.774902344,C,0.971317782,1,H,20,NAN,3,52
2,2,2.0,4,0.668945313,1.0,1.0,1.0,0.0,594.2382813,74.70703125,0.594238281,C,1.028867772,1,H,20,NAN,3,53
2,1,1.0,4,0.556640625,1.0,1.0,1.0,0.0,418.9453125,137.6953125,0.418945313,C,1.033755417,1,H,20,NAN,3,54
2,2,2.0,4,0.9296875,1.0,1.0,1.0,0.0,557.1289063,372.5585938,0.557128906,C,0.844830305,1,H,20,NAN,3,55
2,1,2.0,2,1.033203125,0.0,1.0,0.0,1.0,924.3164063,108.8867188,0.924316406,I,1.051167768,1,H,20,NAN,3,56
2,1,1.0,4,0.649902344,1.0,1.0,1.0,0.0,476.0742188,173.828125,0.476074219,C,1.084692908,1,H,20,NAN,3,57
2,1,2.0,1,1.182128906,0.0,1.0,0.0,1.0,1081.542969,100.5859375,1.081542969,I,0.954330285,1,H,20,NAN,3,58
2,1,1.0,4,0.5234375,1.0,1.0,1.0,0.0,375.9765625,147.4609375,0.375976563,C,1.305067868,1,H,20,NAN,3,59
2,1,1.0,3,0.446777344,1.0,1.0,1.0,0.0,318.8476563,127.9296875,0.318847656,C,1.051042914,1,H,20,NAN,3,60
2,1,1.0,3,0.726074219,1.0,1.0,1.0,0.0,575.1953125,150.8789063,0.575195313,C,0.996192924,1,H,20,NAN,3,61
2,1,1.0,3,0.452148438,1.0,1.0,1.0,0.0,317.3828125,134.765625,0.317382813,C,0.989942925,1,H,20,NAN,3,62
2,1,1.0,4,0.608398438,1.0,1.0,1.0,0.0,414.0625,194.3359375,0.4140625,C,0.868355447,1,H,20,NAN,3,63
2,1,1.0,2,1.369628906,1.0,1.0,1.0,0.0,1249.023438,120.6054688,1.249023438,C,1.000467923,1,H,20,NAN,3,64
2,2,2.0,3,0.685546875,1.0,1.0,1.0,0.0,593.75,91.796875,0.59375,C,0.972455282,1,H,20,NAN,3,65
2,2,NAN,0,NAN,NAN,NAN,NAN,NAN,NAN,NAN,NAN,NAN,NAN,0,H,20,NAN,3,66
2,2,2.0,3,0.895996094,1.0,1.0,1.0,0.0,808.59375,87.40234375,0.80859375,C,1.296905224,1,H,20,NAN,3,67
2,2,2.0,3,0.701660156,1.0,1.0,1.0,0.0,628.90625,72.75390625,0.62890625,C,1.104217759,1,H,20,NAN,3,68
2,2,2.0,2,0.900390625,1.0,1.0,1.0,0.0,816.40625,83.984375,0.81640625,C,1.174855246,1,H,20,NAN,3,69
2,2,2.0,2,0.645507813,1.0,1.0,1.0,0.0,555.6640625,89.84375,0.555664063,C,1.192192743,1,H,20,NAN,3,70
2,1,2.0,2,0.796875,0.0,4.0,1.0,3.0,642.578125,154.296875,0.346679688,C I I I,1.54173018,1,H,20,NAN,4,1
2,2,2.0,2,0.688476563,1.0,1.0,1.0,0.0,611.8164063,76.66015625,0.611816406,C,1.04009277,1,H,20,NAN,4,2
2,2,1.0,2,0.740722656,0.0,1.0,0.0,1.0,625.4882813,115.234375,0.625488281,I,1.137505398,1,H,20,NAN,4,3
2,1,2.0,1,0.856933594,0.0,1.0,0.0,1.0,758.3007813,98.6328125,0.758300781,I,1.019917774,1,H,20,NAN,4,4
2,2,2.0,3,0.571289063,1.0,1.0,1.0,0.0,476.5625,94.7265625,0.4765625,C,0.936767789,1,H,20,NAN,4,5
2,2,2.0,3,1.471679688,1.0,1.0,1.0,0.0,511.2304688,960.4492188,0.511230469,C,NAN,1,H,20,NAN,4,6
2,2,2.0,1,0.962402344,1.0,1.0,1.0,0.0,834.9609375,127.4414063,0.834960938,C,1.045642769,1,H,20,NAN,4,7
2,2,2.0,4,0.543457031,1.0,1.0,1.0,0.0,447.7539063,95.703125,0.447753906,C,0.960742784,1,H,20,NAN,4,8
2,2,2.0,4,0.782226563,1.0,1.0,1.0,0.0,687.9882813,94.23828125,0.687988281,C,1.04064277,1,H,20,NAN,4,9
2,2,1.0,3,0.716796875,0.0,1.0,0.0,1.0,557.1289063,159.6679688,0.557128906,I,1.069780411,1,H,20,NAN,4,10
2,1,1.0,4,0.520507813,1.0,1.0,1.0,0.0,434.5703125,85.9375,0.434570313,C,1.276942873,1,H,20,NAN,4,11
2,1,1.0,4,0.466796875,1.0,1.0,1.0,0.0,364.2578125,102.5390625,0.364257813,C,1.003017922,1,H,20,NAN,4,12
2,2,2.0,1,1.117675781,1.0,1.0,1.0,0.0,1039.550781,78.125,1.039550781,C,1.197142742,1,H,20,NAN,4,13
2,2,2.0,1,0.693847656,1.0,1.0,1.0,0.0,597.1679688,96.6796875,0.597167969,C,1.025705273,1,H,20,NAN,4,14
2,2,1.0,3,0.647949219,0.0,1.0,0.0,1.0,534.6679688,113.28125,0.534667969,I,0.970717928,1,H,20,NAN,4,15
2,2,2.0,1,0.712402344,1.0,1.0,1.0,0.0,603.515625,108.8867188,0.603515625,C,0.995630278,1,H,20,NAN,4,16
2,1,1.0,2,0.831054688,1.0,1.0,1.0,0.0,665.5273438,165.5273438,0.665527344,C,0.969692928,1,H,20,NAN,4,17
2,1,2.0,1,0.739746094,0.0,2.0,0.0,2.0,631.8359375,107.9101563,0.463867188,I I,0.971480282,1,H,20,NAN,4,18
2,1,1.0,1,0.565429688,1.0,1.0,1.0,0.0,386.2304688,179.1992188,0.386230469,C,0.981305426,1,H,20,NAN,4,19
2,2,2.0,2,0.686035156,1.0,1.0,1.0,0.0,574.7070313,111.328125,0.574707031,C,0.825067809,1,H,20,NAN,4,20
2,2,2.0,1,0.766601563,1.0,1.0,1.0,0.0,663.5742188,103.0273438,0.663574219,C,0.888192797,1,H,20,NAN,4,21
2,1,1.0,4,0.611328125,1.0,1.0,1.0,0.0,489.2578125,122.0703125,0.489257813,C,0.874767945,1,H,20,NAN,4,22
2,1,2.0,1,1.233886719,0.0,4.0,2.0,2.0,1124.511719,109.375,0.67578125,C C I I,1.010205275,1,H,20,NAN,4,23
2,1,2.0,1,0.812011719,0.0,4.0,0.0,4.0,701.171875,110.8398438,0.361816406,I I I I,1.21113024,1,H,20,NAN,4,24
2,1,1.0,4,0.534179688,1.0,1.0,1.0,0.0,423.828125,110.3515625,0.423828125,C,0.994717924,1,H,20,NAN,4,25
2,2,1.0,4,1.121582031,0.0,4.0,0.0,4.0,1003.417969,118.1640625,0.34765625,I I I I,1.049517914,1,H,20,NAN,4,26
2,2,2.0,1,0.630859375,1.0,1.0,1.0,0.0,534.6679688,96.19140625,0.534667969,C,1.203105241,1,H,20,NAN,4,27
2,1,1.0,4,0.569824219,1.0,1.0,1.0,0.0,467.7734375,102.0507813,0.467773438,C,1.068030411,1,H,20,NAN,4,28
2,1,1.0,4,0.588378906,1.0,1.0,1.0,0.0,491.6992188,96.6796875,0.491699219,C,1.23884288,1,H,20,NAN,4,29
2,1,1.0,3,0.759277344,1.0,1.0,1.0,0.0,598.1445313,161.1328125,0.598144531,C,1.332367864,1,H,20,NAN,4,30
2,2,1.0,3,0.801757813,0.0,1.0,0.0,1.0,704.1015625,97.65625,0.704101563,I,1.385505354,1,H,20,NAN,4,31
2,2,1.0,4,0.513183594,0.0,1.0,0.0,1.0,402.34375,110.8398438,0.40234375,I,1.103467904,1,H,20,NAN,4,32
2,2,1.0,1,1.016113281,0.0,1.0,0.0,1.0,936.5234375,79.58984375,0.936523438,I,1.227342882,1,H,20,NAN,4,33
2,2,1.0,1,1.082519531,0.0,1.0,0.0,1.0,1018.554688,63.96484375,1.018554688,I,1.503705333,1,H,20,NAN,4,34
2,2,1.0,1,1.057128906,0.0,1.0,0.0,1.0,957.5195313,99.609375,0.957519531,I,1.1309679,1,H,20,NAN,4,35
2,2,2.0,2,0.768066406,1.0,1.0,1.0,0.0,672.3632813,95.703125,0.672363281,C,0.969055283,1,H,20,NAN,4,36
2,2,1.0,4,0.563964844,0.0,1.0,0.0,1.0,474.609375,89.35546875,0.474609375,I,1.18583039,1,H,20,NAN,4,37
2,1,2.0,2,0.836914063,0.0,1.0,0.0,1.0,752.9296875,83.984375,0.752929688,I,1.078242763,1,H,20,NAN,4,38
2,1,2.0,1,1.086425781,0.0,1.0,0.0,1.0,1017.578125,68.84765625,1.017578125,I,1.121417756,1,H,20,NAN,4,39
2,1,1.0,4,0.546875,1.0,1.0,1.0,0.0,461.4257813,85.44921875,0.461425781,C,1.097530406,1,H,20,NAN,4,40
2,1,1.0,4,0.415527344,1.0,1.0,1.0,0.0,353.515625,62.01171875,0.353515625,C,1.174505392,1,H,20,NAN,4,41
2,2,1.0,4,0.435546875,0.0,1.0,0.0,1.0,363.28125,72.265625,0.36328125,I,1.278280373,1,H,20,NAN,4,42
2,2,2.0,4,0.565917969,1.0,1.0,1.0,0.0,479.4921875,86.42578125,0.479492188,C,1.141505252,1,H,20,NAN,4,43
2,1,1.0,4,0.467773438,1.0,1.0,1.0,0.0,385.2539063,82.51953125,0.385253906,C,1.117967902,1,H,20,NAN,4,44
2,2,2.0,4,0.837402344,1.0,1.0,1.0,0.0,743.6523438,93.75,0.743652344,C,1.031467772,1,H,20,NAN,4,45
2,1,1.0,3,0.390136719,1.0,1.0,1.0,0.0,310.0585938,80.078125,0.310058594,C,1.23926788,1,H,20,NAN,4,46
2,1,1.0,4,0.501953125,1.0,1.0,1.0,0.0,415.5273438,86.42578125,0.415527344,C,1.134792899,1,H,20,NAN,4,47
2,1,1.0,4,0.574707031,1.0,1.0,1.0,0.0,454.1015625,120.6054688,0.454101563,C,0.935280435,1,H,20,NAN,4,48
2,2,1.0,3,0.557128906,0.0,1.0,0.0,1.0,472.1679688,84.9609375,0.472167969,I,1.01610542,1,H,20,NAN,4,49
2,2,1.0,2,0.5546875,0.0,1.0,0.0,1.0,414.0625,140.625,0.4140625,I,0.935092935,1,H,20,NAN,4,50
2,2,2.0,3,0.601074219,1.0,1.0,1.0,0.0,492.6757813,108.3984375,0.492675781,C,0.8748053,1,H,20,NAN,4,51
2,2,1.0,3,0.815429688,0.0,1.0,0.0,1.0,731.9335938,83.49609375,0.731933594,I,1.023217919,1,H,20,NAN,4,52
2,1,1.0,4,0.536621094,1.0,1.0,1.0,0.0,442.3828125,94.23828125,0.442382813,C,1.139630398,1,H,20,NAN,4,53
2,2,2.0,4,0.596679688,1.0,1.0,1.0,0.0,503.4179688,93.26171875,0.503417969,C,1.045555269,1,H,20,NAN,4,54
2,2,2.0,4,0.767578125,1.0,1.0,1.0,0.0,645.0195313,122.5585938,0.645019531,C,0.845342805,1,H,20,NAN,4,55
2,2,1.0,1,0.467285156,0.0,1.0,0.0,1.0,375.4882813,91.796875,0.375488281,I,0.990942925,1,H,20,NAN,4,56
2,1,1.0,2,0.614746094,1.0,1.0,1.0,0.0,532.2265625,82.51953125,0.532226563,C,1.1276429,1,H,20,NAN,4,57
2,1,1.0,4,0.720214844,1.0,1.0,1.0,0.0,603.0273438,117.1875,0.603027344,C,0.911317939,1,H,20,NAN,4,58
2,2,2.0,4,0.744140625,1.0,1.0,1.0,0.0,626.4648438,117.6757813,0.626464844,C,0.822105309,1,H,20,NAN,4,59
2,1,1.0,4,0.571289063,1.0,1.0,1.0,0.0,448.7304688,122.5585938,0.448730469,C,0.877680445,1,H,20,NAN,4,60
2,2,2.0,4,0.889648438,1.0,1.0,1.0,0.0,763.1835938,126.4648438,0.763183594,C,0.81590531,1,H,20,NAN,4,61
2,1,1.0,1,0.805664063,1.0,1.0,1.0,0.0,682.1289063,123.5351563,0.682128906,C,0.995430424,1,H,20,NAN,4,62
2,2,2.0,1,1.469726563,1.0,1.0,1.0,0.0,1082.519531,387.2070313,1.082519531,C,NAN,1,H,20,NAN,4,63
2,1,1.0,4,0.529785156,1.0,1.0,1.0,0.0,415.5273438,114.2578125,0.415527344,C,1.040642916,1,H,20,NAN,4,64
2,2,2.0,3,1.24609375,1.0,2.0,2.0,0.0,1147.460938,98.6328125,0.860839844,C C,0.925567791,1,H,20,NAN,4,65
2,1,2.0,3,0.873046875,0.0,1.0,0.0,1.0,797.8515625,75.1953125,0.797851563,I,1.142180252,1,H,20,NAN,4,66
2,1,1.0,3,1.138183594,1.0,1.0,1.0,0.0,958.4960938,179.6875,0.958496094,C,0.844555451,1,H,20,NAN,4,67
2,2,2.0,2,0.625976563,1.0,1.0,1.0,0.0,535.6445313,90.33203125,0.535644531,C,0.92875529,1,H,20,NAN,4,68
2,1,1.0,4,0.739257813,1.0,1.0,1.0,0.0,563.9648438,175.2929688,0.563964844,C,0.991592924,1,H,20,NAN,4,69
2,2,2.0,1,1.072265625,1.0,1.0,1.0,0.0,947.7539063,124.5117188,0.947753906,C,0.98464278,1,H,20,NAN,4,70
2,2,2.0,1,0.726074219,1.0,1.0,1.0,0.0,625.0,101.0742188,0.625,C,1.349042715,1,H,20,NAN,5,1
2,2,2.0,2,0.691894531,1.0,1.0,1.0,0.0,576.6601563,115.234375,0.576660156,C,1.159367749,1,H,20,NAN,5,2
2,2,2.0,2,1.310546875,1.0,2.0,2.0,0.0,1210.449219,100.0976563,0.879882813,C C,1.147130251,1,H,20,NAN,5,3
2,1,1.0,4,0.709472656,1.0,1.0,1.0,0.0,525.390625,184.0820313,0.525390625,C,1.07191791,1,H,20,NAN,5,4
2,2,2.0,4,0.640625,1.0,1.0,1.0,0.0,545.4101563,95.21484375,0.545410156,C,1.125792755,1,H,20,NAN,5,5
2,1,2.0,3,1.297851563,0.0,3.0,0.0,3.0,1200.195313,97.65625,0.715332031,I I I,1.178192745,1,H,20,NAN,5,6
2,1,1.0,4,0.569335938,1.0,1.0,1.0,0.0,481.9335938,87.40234375,0.481933594,C,1.07023041,1,H,20,NAN,5,7
2,1,1.0,4,0.723144531,1.0,1.0,1.0,0.0,594.2382813,128.90625,0.594238281,C,1.18418039,1,H,20,NAN,5,8
2,2,1.0,1,1.042480469,0.0,1.0,0.0,1.0,953.6132813,88.8671875,0.953613281,I,1.083667908,1,H,20,NAN,5,9
2,1,1.0,3,0.904296875,1.0,1.0,1.0,0.0,396.9726563,507.3242188,0.396972656,C,0.938780434,1,H,20,NAN,5,10
2,2,2.0,3,0.547363281,1.0,1.0,1.0,0.0,471.1914063,76.171875,0.471191406,C,1.202480241,1,H,20,NAN,5,11
2,2,2.0,3,0.698242188,1.0,1.0,1.0,0.0,619.6289063,78.61328125,0.619628906,C,1.233417736,1,H,20,NAN,5,12
2,1,1.0,4,0.478515625,1.0,1.0,1.0,0.0,361.8164063,116.6992188,0.361816406,C,1.037005416,1,H,20,NAN,5,13
2,1,2.0,2,1.056640625,0.0,1.0,0.0,1.0,966.3085938,90.33203125,0.966308594,I,1.390055208,1,H,20,NAN,5,14
2,1,1.0,4,0.499023438,1.0,1.0,1.0,0.0,400.8789063,98.14453125,0.400878906,C,1.032530417,1,H,20,NAN,5,15
2,1,1.0,4,0.649902344,1.0,1.0,1.0,0.0,561.5234375,88.37890625,0.561523438,C,1.053317913,1,H,20,NAN,5,16
2,2,1.0,3,0.683105469,0.0,1.0,0.0,1.0,580.5664063,102.5390625,0.580566406,I,1.076005409,1,H,20,NAN,5,17
2,1,1.0,4,0.43359375,1.0,1.0,1.0,0.0,332.03125,101.5625,0.33203125,C,1.313042867,1,H,20,NAN,5,18
2,1,1.0,4,0.479492188,1.0,1.0,1.0,0.0,394.0429688,85.44921875,0.394042969,C,1.031830417,1,H,20,NAN,5,19
2,2,1.0,2,0.7578125,0.0,2.0,0.0,2.0,669.921875,87.890625,0.342285156,I I,1.064567911,1,H,20,NAN,5,20
2,2,2.0,3,0.571777344,1.0,1.0,1.0,0.0,500.0,71.77734375,0.5,C,1.232705236,1,H,20,NAN,5,21
2,1,1.0,4,0.459472656,1.0,1.0,1.0,0.0,349.609375,109.8632813,0.349609375,C,0.84988045,1,H,20,NAN,5,22
2,1,1.0,4,0.563964844,1.0,1.0,1.0,0.0,447.7539063,116.2109375,0.447753906,C,0.857405448,1,H,20,NAN,5,23
2,2,2.0,1,1.072753906,1.0,2.0,1.0,1.0,990.7226563,82.03125,0.286132813,I C,0.954167785,1,H,20,NAN,5,24
2,1,1.0,3,0.87109375,1.0,2.0,2.0,0.0,764.6484375,106.4453125,0.436523438,C C,0.807755457,1,H,20,NAN,5,25
2,2,2.0,4,0.564453125,1.0,1.0,1.0,0.0,479.0039063,85.44921875,0.479003906,C,1.192317743,1,H,20,NAN,5,26
2,1,2.0,2,0.603027344,0.0,1.0,0.0,1.0,533.6914063,69.3359375,0.533691406,I,1.093255261,1,H,20,NAN,5,27
2,1,2.0,2,0.562988281,0.0,1.0,0.0,1.0,488.7695313,74.21875,0.488769531,I,1.09804276,1,H,20,NAN,5,28
2,1,1.0,1,1.186035156,1.0,1.0,1.0,0.0,1094.238281,91.796875,1.094238281,C,1.104755404,1,H,20,NAN,5,29
2,1,2.0,1,0.817382813,0.0,1.0,0.0,1.0,727.0507813,90.33203125,0.727050781,I,0.997455278,1,H,20,NAN,5,30
2,1,1.0,4,0.873535156,1.0,1.0,1.0,0.0,772.9492188,100.5859375,0.772949219,C,0.964530429,1,H,20,NAN,5,31
2,2,2.0,4,0.794921875,1.0,1.0,1.0,0.0,696.7773438,98.14453125,0.696777344,C,1.31960522,1,H,20,NAN,5,32
2,2,2.0,2,1.223144531,1.0,1.0,1.0,0.0,1139.648438,83.49609375,1.139648438,C,1.259217731,1,H,20,NAN,5,33
2,1,2.0,2,1.235351563,0.0,1.0,0.0,1.0,1133.300781,102.0507813,1.133300781,I,0.994442778,1,H,20,NAN,5,34
2,1,2.0,2,0.919433594,0.0,1.0,0.0,1.0,825.6835938,93.75,0.825683594,I,1.162205248,1,H,20,NAN,5,35
2,2,2.0,2,0.734863281,1.0,1.0,1.0,0.0,645.5078125,89.35546875,0.645507813,C,1.228692736,1,H,20,NAN,5,36
2,2,2.0,3,1.040039063,1.0,2.0,2.0,0.0,924.3164063,115.7226563,0.673828125,C C,0.895667796,1,H,20,NAN,5,37
2,2,2.0,3,1.001464844,1.0,1.0,1.0,0.0,895.0195313,106.4453125,0.895019531,C,1.508730186,1,H,20,NAN,5,38
2,1,1.0,4,1.150390625,1.0,1.0,1.0,0.0,1040.527344,109.8632813,1.040527344,C,1.01501792,1,H,20,NAN,5,39
2,1,2.0,1,1.228027344,0.0,1.0,0.0,1.0,1121.582031,106.4453125,1.121582031,I,0.965317783,1,H,20,NAN,5,40
2,2,2.0,2,1.290039063,1.0,1.0,1.0,0.0,1183.59375,106.4453125,1.18359375,C,1.025780273,1,H,20,NAN,5,41
2,1,1.0,4,0.832519531,1.0,1.0,1.0,0.0,732.9101563,99.609375,0.732910156,C,0.936467934,1,H,20,NAN,5,42
2,2,2.0,4,0.805664063,1.0,1.0,1.0,0.0,735.8398438,69.82421875,0.735839844,C,1.295680224,1,H,20,NAN,5,43
2,1,1.0,4,0.62890625,1.0,1.0,1.0,0.0,530.7617188,98.14453125,0.530761719,C,1.116792902,1,H,20,NAN,5,44
2,1,1.0,4,0.775878906,1.0,1.0,1.0,0.0,688.4765625,87.40234375,0.688476563,C,0.923505437,1,H,20,NAN,5,45
2,2,2.0,2,1.349609375,1.0,1.0,1.0,0.0,1225.585938,124.0234375,1.225585938,C,0.886992797,1,H,20,NAN,5,46
2,2,2.0,4,0.991699219,1.0,2.0,2.0,0.0,828.6132813,163.0859375,0.623046875,C C,0.81720531,1,H,20,NAN,5,47
2,2,2.0,4,0.618164063,1.0,1.0,1.0,0.0,537.5976563,80.56640625,0.537597656,C,1.110505258,1,H,20,NAN,5,48
2,2,1.0,1,0.802246094,0.0,1.0,0.0,1.0,679.6875,122.5585938,0.6796875,I,0.978105427,1,H,20,NAN,5,49
2,2,2.0,1,1.213378906,1.0,1.0,1.0,0.0,1098.144531,115.234375,1.098144531,C,0.93000529,1,H,20,NAN,5,50
2,2,2.0,2,0.913085938,1.0,1.0,1.0,0.0,833.984375,79.1015625,0.833984375,C,1.499030188,1,H,20,NAN,5,51
2,1,1.0,3,0.769042969,1.0,1.0,1.0,0.0,651.3671875,117.6757813,0.651367188,C,1.047942914,1,H,20,NAN,5,52
2,2,1.0,1,0.91015625,0.0,1.0,0.0,1.0,803.7109375,106.4453125,0.803710938,I,1.198617887,1,H,20,NAN,5,53
2,1,1.0,1,1.19140625,1.0,1.0,1.0,0.0,1092.285156,99.12109375,1.092285156,C,1.117492902,1,H,20,NAN,5,54
2,2,2.0,3,0.880859375,1.0,1.0,1.0,0.0,798.3398438,82.51953125,0.798339844,C,1.166130248,1,H,20,NAN,5,55
2,2,2.0,4,0.71875,1.0,1.0,1.0,0.0,626.4648438,92.28515625,0.626464844,C,1.006067776,1,H,20,NAN,5,56
2,1,1.0,4,0.587402344,1.0,1.0,1.0,0.0,514.1601563,73.2421875,0.514160156,C,1.117280402,1,H,20,NAN,5,57
2,2,2.0,4,0.740722656,1.0,1.0,1.0,0.0,628.90625,111.8164063,0.62890625,C,1.022067773,1,H,20,NAN,5,58
2,1,2.0,2,0.884277344,0.0,1.0,0.0,1.0,771.484375,112.7929688,0.771484375,I,0.992505279,1,H,20,NAN,5,59
2,2,2.0,4,0.894042969,1.0,1.0,1.0,0.0,782.7148438,111.328125,0.782714844,C,1.03836777,1,H,20,NAN,5,60
2,2,2.0,4,0.723144531,1.0,1.0,1.0,0.0,600.0976563,123.046875,0.600097656,C,0.855242803,1,H,20,NAN,5,61
2,1,1.0,4,0.973632813,1.0,2.0,2.0,0.0,898.4375,75.1953125,0.591308594,C C,1.097080406,1,H,20,NAN,5,62
2,2,2.0,4,0.737304688,1.0,1.0,1.0,0.0,610.8398438,126.4648438,0.610839844,C,0.813217811,1,H,20,NAN,5,63
2,1,1.0,4,0.772949219,1.0,1.0,1.0,0.0,634.2773438,138.671875,0.634277344,C,0.840717951,1,H,20,NAN,5,64
2,1,2.0,2,1.06640625,0.0,1.0,0.0,1.0,964.84375,101.5625,0.96484375,I,1.089642761,1,H,20,NAN,5,65
2,2,2.0,4,0.763183594,1.0,1.0,1.0,0.0,676.7578125,86.42578125,0.676757813,C,1.121092756,1,H,20,NAN,5,66
2,1,1.0,3,0.651855469,1.0,1.0,1.0,0.0,534.1796875,117.6757813,0.534179688,C,0.970480428,1,H,20,NAN,5,67
2,1,1.0,3,0.702636719,1.0,1.0,1.0,0.0,613.7695313,88.8671875,0.613769531,C,0.889142943,1,H,20,NAN,5,68
2,2,2.0,1,1.03125,1.0,1.0,1.0,0.0,910.15625,121.09375,0.91015625,C,0.907817794,1,H,20,NAN,5,69
2,2,1.0,1,0.993164063,0.0,1.0,0.0,1.0,816.40625,176.7578125,0.81640625,I,0.875580445,1,H,20,NAN,5,70
3,1,1.0,1,0.426269531,1.0,1.0,1.0,0.0,333.0078125,93.26171875,0.333007813,C,1.614280313,1,H,21,NAN,1,1
3,2,2.0,2,0.391601563,1.0,1.0,1.0,0.0,331.0546875,60.546875,0.331054688,C,2.292905046,1,H,21,NAN,1,2
3,2,2.0,2,0.434082031,1.0,3.0,1.0,2.0,375.4882813,58.59375,0.180175781,I I C,1.904705115,1,H,21,NAN,1,3
3,1,1.0,2,0.387695313,1.0,1.0,1.0,0.0,274.4140625,113.28125,0.274414063,C,1.189430389,1,H,21,NAN,1,4
3,2,2.0,2,0.403808594,1.0,1.0,1.0,0.0,343.75,60.05859375,0.34375,C,1.568092676,1,H,21,NAN,1,5
3,1,1.0,2,0.365234375,1.0,1.0,1.0,0.0,272.4609375,92.7734375,0.272460938,C,1.195855388,1,H,21,NAN,1,6
3,1,1.0,2,0.346679688,1.0,1.0,1.0,0.0,286.1328125,60.546875,0.286132813,C,1.348505361,1,H,21,NAN,1,7
3,2,2.0,2,0.392089844,1.0,1.0,1.0,0.0,306.1523438,85.9375,0.306152344,C,1.108680258,1,H,21,NAN,1,8
3,2,2.0,2,0.430664063,1.0,2.0,1.0,1.0,364.2578125,66.40625,0.261230469,I C,1.449805197,1,H,21,NAN,1,9
3,1,1.0,2,0.400878906,1.0,1.0,1.0,0.0,310.546875,90.33203125,0.310546875,C,0.948780432,1,H,21,NAN,1,10
3,1,1.0,2,0.408203125,1.0,1.0,1.0,0.0,310.546875,97.65625,0.310546875,C,1.243855379,1,H,21,NAN,1,11
3,1,1.0,2,0.310546875,1.0,1.0,1.0,0.0,222.1679688,88.37890625,0.222167969,C,1.272267874,1,H,21,NAN,1,12
3,1,1.0,1,0.333984375,1.0,1.0,1.0,0.0,243.6523438,90.33203125,0.243652344,C,1.133730399,1,H,21,NAN,1,13
3,1,1.0,2,0.374023438,1.0,1.0,1.0,0.0,310.546875,63.4765625,0.310546875,C,1.244442879,1,H,21,NAN,1,14
3,1,1.0,2,0.377441406,1.0,1.0,1.0,0.0,286.1328125,91.30859375,0.286132813,C,1.109755403,1,H,21,NAN,1,15
3,2,2.0,2,0.381347656,1.0,1.0,1.0,0.0,300.2929688,81.0546875,0.300292969,C,1.258867731,1,H,21,NAN,1,16
3,2,2.0,3,0.356445313,1.0,1.0,1.0,0.0,281.25,75.1953125,0.28125,C,1.26174273,1,H,21,NAN,1,17
3,2,2.0,3,0.349121094,1.0,1.0,1.0,0.0,274.9023438,74.21875,0.274902344,C,1.159742749,1,H,21,NAN,1,18
3,1,1.0,3,0.36328125,1.0,1.0,1.0,0.0,274.9023438,88.37890625,0.274902344,C,1.079317909,1,H,21,NAN,1,19
3,1,1.0,4,0.399414063,1.0,1.0,1.0,0.0,309.5703125,89.84375,0.309570313,C,1.180492891,1,H,21,NAN,1,20
3,2,2.0,2,0.435546875,1.0,1.0,1.0,0.0,372.0703125,63.4765625,0.372070313,C,1.460092695,1,H,21,NAN,1,21
3,1,1.0,3,0.345214844,1.0,1.0,1.0,0.0,258.3007813,86.9140625,0.258300781,C,0.948405432,1,H,21,NAN,1,22
3,1,1.0,2,0.408203125,1.0,1.0,1.0,0.0,312.0117188,96.19140625,0.312011719,C,1.021217919,1,H,21,NAN,1,23
3,1,1.0,3,0.327148438,1.0,1.0,1.0,0.0,226.0742188,101.0742188,0.226074219,C,0.985305426,1,H,21,NAN,1,24
3,1,1.0,3,0.321289063,1.0,1.0,1.0,0.0,229.0039063,92.28515625,0.229003906,C,1.031355417,1,H,21,NAN,1,25
3,1,1.0,3,0.278320313,1.0,1.0,1.0,0.0,189.9414063,88.37890625,0.189941406,C,1.249605378,1,H,21,NAN,1,26
3,1,1.0,3,0.341796875,1.0,1.0,1.0,0.0,244.140625,97.65625,0.244140625,C,1.065580411,1,H,21,NAN,1,27
3,1,1.0,3,0.314941406,1.0,1.0,1.0,0.0,247.5585938,67.3828125,0.247558594,C,1.194755388,1,H,21,NAN,1,28
3,1,1.0,3,0.315917969,1.0,1.0,1.0,0.0,241.2109375,74.70703125,0.241210938,C,1.075542909,1,H,21,NAN,1,29
3,1,1.0,2,0.326171875,1.0,1.0,1.0,0.0,226.5625,99.609375,0.2265625,C,1.049355414,1,H,21,NAN,1,30
3,2,2.0,2,0.533203125,1.0,2.0,1.0,1.0,463.8671875,69.3359375,0.197753906,I C,1.327880219,1,H,21,NAN,1,31
3,2,2.0,2,0.474121094,1.0,4.0,1.0,3.0,399.9023438,74.21875,0.146484375,I I I C,1.20694274,1,H,21,NAN,1,32
3,1,1.0,3,0.400390625,1.0,1.0,1.0,0.0,307.1289063,93.26171875,0.307128906,C,0.938717934,1,H,21,NAN,1,33
3,2,1.0,0,0.389160156,0.0,2.0,1.0,1.0,293.9453125,95.21484375,0.375976563,I,0.815580456,1,H,21,NAN,1,34
3,2,2.0,2,0.648925781,1.0,NAN,NAN,NAN,NAN,NAN,NAN,NAN,NAN,0,H,21,NAN,1,35
3,1,1.0,3,0.458496094,1.0,1.0,1.0,0.0,330.078125,128.4179688,0.330078125,C,0.85116795,1,H,21,NAN,1,36
3,2,2.0,3,0.436035156,1.0,3.0,1.0,2.0,369.6289063,66.40625,0.047363281,I I C,1.368592711,1,H,21,NAN,1,37
3,1,1.0,3,0.461914063,1.0,1.0,1.0,0.0,346.6796875,115.234375,0.346679688,C,0.809792957,1,H,21,NAN,1,38
3,2,2.0,3,0.420898438,1.0,1.0,1.0,0.0,337.4023438,83.49609375,0.337402344,C,1.132392754,1,H,21,NAN,1,39
3,1,1.0,3,0.441894531,1.0,2.0,2.0,0.0,350.0976563,91.796875,0.224609375,C C,1.097380406,1,H,21,NAN,1,40
3,1,1.0,3,0.342285156,1.0,1.0,1.0,0.0,255.859375,86.42578125,0.255859375,C,1.23888038,1,H,21,NAN,1,41
3,2,2.0,3,0.487792969,1.0,2.0,1.0,1.0,397.4609375,90.33203125,0.187988281,I C,1.100930259,1,H,21,NAN,1,42
3,1,1.0,3,0.369628906,1.0,2.0,2.0,0.0,291.9921875,77.63671875,0.179199219,C C,1.157442895,1,H,21,NAN,1,43
3,2,2.0,3,0.342285156,1.0,1.0,1.0,0.0,266.1132813,76.171875,0.266113281,C,1.239267734,1,H,21,NAN,1,44
3,1,1.0,2,0.474609375,1.0,3.0,2.0,1.0,413.5742188,61.03515625,0.253417969,C I C,1.382892855,1,H,21,NAN,1,45
3,1,1.0,2,0.352539063,1.0,1.0,1.0,0.0,291.5039063,61.03515625,0.291503906,C,1.46264284,1,H,21,NAN,1,46
3,2,2.0,2,0.393554688,1.0,1.0,1.0,0.0,327.1484375,66.40625,0.327148438,C,1.435980199,1,H,21,NAN,1,47
3,2,2.0,2,0.344238281,1.0,2.0,1.0,1.0,289.5507813,54.6875,0.196289063,I C,1.873592621,1,H,21,NAN,1,48
3,2,2.0,2,0.418457031,1.0,2.0,1.0,1.0,368.6523438,49.8046875,0.265136719,I C,2.165342569,1,H,21,NAN,1,49
3,2,2.0,2,0.350097656,1.0,1.0,1.0,0.0,274.4140625,75.68359375,0.274414063,C,1.178417745,1,H,21,NAN,1,50
3,1,1.0,2,0.377929688,1.0,1.0,1.0,0.0,293.4570313,84.47265625,0.293457031,C,1.07163041,1,H,21,NAN,1,51
3,1,1.0,2,0.632324219,1.0,3.0,2.0,1.0,574.7070313,57.6171875,0.327148438,I C C,1.52203033,1,H,21,NAN,1,52
3,2,2.0,3,0.346191406,1.0,1.0,1.0,0.0,278.3203125,67.87109375,0.278320313,C,1.463805194,1,H,21,NAN,1,53
3,2,2.0,1,0.717773438,1.0,2.0,1.0,1.0,655.2734375,62.5,0.542480469,I C,1.329367718,1,H,21,NAN,1,54
3,2,2.0,2,0.471191406,1.0,2.0,1.0,1.0,401.3671875,69.82421875,0.292480469,I C,1.297317724,1,H,21,NAN,1,55
3,1,1.0,3,0.42578125,1.0,1.0,1.0,0.0,338.3789063,87.40234375,0.338378906,C,1.039017916,1,H,21,NAN,1,56
3,1,1.0,1,0.538574219,1.0,2.0,1.0,1.0,422.8515625,115.7226563,0.331542969,I C,0.931392935,1,H,21,NAN,1,57
3,2,2.0,2,0.477539063,1.0,2.0,1.0,1.0,414.0625,63.4765625,0.258789063,I C,1.4322927,1,H,21,NAN,1,58
3,1,1.0,2,0.423339844,1.0,1.0,1.0,0.0,350.5859375,72.75390625,0.350585938,C,1.225517883,1,H,21,NAN,1,59
3,1,1.0,2,0.469238281,1.0,1.0,1.0,0.0,359.8632813,109.375,0.359863281,C,1.416117849,1,H,21,NAN,1,60
3,2,2.0,2,0.426269531,1.0,2.0,1.0,1.0,348.1445313,78.125,0.276855469,I C,1.15168025,1,H,21,NAN,1,61
3,2,2.0,2,0.566894531,1.0,2.0,1.0,1.0,379.3945313,187.5,0.229492188,I C,1.404505205,1,H,21,NAN,1,62
3,1,1.0,2,0.354980469,1.0,1.0,1.0,0.0,278.3203125,76.66015625,0.278320313,C,1.404467851,1,H,21,NAN,1,63
3,1,1.0,2,0.393554688,1.0,1.0,1.0,0.0,332.03125,61.5234375,0.33203125,C,1.310217868,1,H,21,NAN,1,64
3,2,2.0,3,0.475097656,1.0,1.0,1.0,0.0,397.9492188,77.1484375,0.397949219,C,1.253817732,1,H,21,NAN,1,65
3,1,1.0,3,0.391601563,1.0,2.0,2.0,0.0,325.6835938,65.91796875,0.232910156,C C,1.314367867,1,H,21,NAN,1,66
3,2,2.0,3,0.40625,1.0,1.0,1.0,0.0,323.7304688,82.51953125,0.323730469,C,1.243405234,1,H,21,NAN,1,67
3,2,2.0,2,0.443847656,1.0,1.0,1.0,0.0,373.046875,70.80078125,0.373046875,C,1.300342724,1,H,21,NAN,1,68
3,2,2.0,2,0.447265625,1.0,1.0,1.0,0.0,380.859375,66.40625,0.380859375,C,1.324830219,1,H,21,NAN,1,69
3,1,1.0,1,1.037109375,1.0,NAN,NAN,NAN,NAN,NAN,NAN,NAN,NAN,0,H,21,NAN,2,1
3,2,2.0,2,0.400390625,1.0,NAN,NAN,NAN,NAN,NAN,NAN,NAN,NAN,0,H,21,NAN,2,2
3,2,2.0,3,0.359863281,1.0,1.0,1.0,0.0,283.203125,76.66015625,0.283203125,C,1.283742727,1,H,21,NAN,2,3
3,2,2.0,4,0.343261719,1.0,1.0,1.0,0.0,255.859375,87.40234375,0.255859375,C,1.183142745,1,H,21,NAN,2,4
3,1,1.0,4,0.41796875,1.0,2.0,1.0,1.0,338.3789063,79.58984375,0.306640625,I C,1.376867856,1,H,21,NAN,2,5
3,1,1.0,4,0.412597656,1.0,1.0,1.0,0.0,304.6875,107.9101563,0.3046875,C,1.449117843,1,H,21,NAN,2,6
3,1,1.0,4,0.62890625,1.0,NAN,NAN,NAN,NAN,NAN,NAN,NAN,NAN,0,H,21,NAN,2,7
3,1,1.0,3,0.410644531,1.0,1.0,1.0,0.0,325.1953125,85.44921875,0.325195313,C,1.254367877,1,H,21,NAN,2,8
3,2,2.0,4,0.692871094,1.0,3.0,2.0,1.0,648.4375,44.43359375,0.256347656,I C C,3.478104834,1,H,21,NAN,2,9
3,1,1.0,3,0.444335938,1.0,2.0,1.0,1.0,372.0703125,72.265625,0.266601563,I C,1.232892881,1,H,21,NAN,2,10
3,2,2.0,4,0.413574219,1.0,NAN,NAN,NAN,NAN,NAN,NAN,NAN,NAN,0,H,21,NAN,2,11
3,1,1.0,4,0.348144531,1.0,1.0,1.0,0.0,263.1835938,84.9609375,0.263183594,C,1.154867895,1,H,21,NAN,2,12
3,1,1.0,2,0.418457031,1.0,1.0,1.0,0.0,332.5195313,85.9375,0.332519531,C,1.319117866,1,H,21,NAN,2,13
3,2,2.0,2,0.620117188,1.0,NAN,NAN,NAN,NAN,NAN,NAN,NAN,NAN,0,H,21,NAN,2,14
3,1,1.0,3,0.427246094,1.0,1.0,1.0,0.0,310.0585938,117.1875,0.310058594,C,1.301080369,1,H,21,NAN,2,15
3,2,2.0,3,0.689453125,1.0,NAN,NAN,NAN,NAN,NAN,NAN,NAN,NAN,0,H,21,NAN,2,16
3,2,2.0,4,0.430664063,1.0,2.0,1.0,1.0,373.046875,57.6171875,0.258789063,I C,1.745192644,1,H,21,NAN,2,17
3,2,2.0,4,0.424804688,1.0,2.0,1.0,1.0,363.28125,61.5234375,0.3046875,I C,1.737892645,1,H,21,NAN,2,18
3,2,2.0,3,0.37890625,1.0,1.0,1.0,0.0,295.4101563,83.49609375,0.295410156,C,1.278280228,1,H,21,NAN,2,19
3,2,2.0,4,0.389160156,1.0,1.0,1.0,0.0,283.203125,105.9570313,0.283203125,C,1.086980262,1,H,21,NAN,2,20
3,2,2.0,3,0.361328125,1.0,1.0,1.0,0.0,284.1796875,77.1484375,0.284179688,C,1.230042736,1,H,21,NAN,2,21
3,2,2.0,3,0.593261719,1.0,2.0,2.0,0.0,529.296875,63.96484375,0.260742188,C C,3.045354912,1,H,21,NAN,2,22
3,1,1.0,3,0.390625,1.0,1.0,1.0,0.0,317.3828125,73.2421875,0.317382813,C,1.198430388,1,H,21,NAN,2,23
3,1,1.0,2,0.422851563,1.0,1.0,1.0,0.0,350.0976563,72.75390625,0.350097656,C,1.415255349,1,H,21,NAN,2,24
3,2,2.0,2,0.389648438,1.0,1.0,1.0,0.0,322.265625,67.3828125,0.322265625,C,1.526442683,1,H,21,NAN,2,25
3,2,2.0,2,0.435546875,1.0,3.0,1.0,2.0,356.9335938,78.61328125,0.155761719,I I C,1.422880202,1,H,21,NAN,2,26
3,2,2.0,2,0.3984375,1.0,1.0,1.0,0.0,329.1015625,69.3359375,0.329101563,C,1.500792688,1,H,21,NAN,2,27
3,2,2.0,3,0.363769531,1.0,1.0,1.0,0.0,288.0859375,75.68359375,0.288085938,C,1.298967724,1,H,21,NAN,2,28
3,1,1.0,3,0.483886719,1.0,1.0,1.0,0.0,345.2148438,138.671875,0.345214844,C,1.368330357,1,H,21,NAN,2,29
3,1,1.0,2,0.42578125,1.0,2.0,2.0,0.0,351.0742188,74.70703125,0.349609375,C C,1.469130339,1,H,21,NAN,2,30
3,2,2.0,2,0.468261719,1.0,2.0,1.0,1.0,388.671875,79.58984375,0.229980469,I C,1.715130149,1,H,21,NAN,2,31
3,1,1.0,3,0.473632813,1.0,2.0,2.0,0.0,388.671875,84.9609375,0.274414063,C C,1.402717851,1,H,21,NAN,2,32
3,2,2.0,3,0.378417969,1.0,1.0,1.0,0.0,317.3828125,61.03515625,0.317382813,C,1.76585514,1,H,21,NAN,2,33
3,2,2.0,4,0.437011719,1.0,3.0,1.0,2.0,380.3710938,56.640625,0.209960938,I I C,1.932105111,1,H,21,NAN,2,34
3,2,2.0,2,0.411621094,1.0,1.0,1.0,0.0,339.3554688,72.265625,0.339355469,C,1.384842708,1,H,21,NAN,2,35
3,2,2.0,2,0.317382813,1.0,1.0,1.0,0.0,229.9804688,87.40234375,0.229980469,C,1.276405228,1,H,21,NAN,2,36
3,1,1.0,1,0.391113281,1.0,1.0,1.0,0.0,293.9453125,97.16796875,0.293945313,C,0.966955429,1,H,21,NAN,2,37
3,2,2.0,2,0.492675781,1.0,3.0,1.0,2.0,397.9492188,94.7265625,0.264160156,I I C,1.167017747,1,H,21,NAN,2,38
3,2,2.0,2,0.62109375,1.0,2.0,2.0,0.0,556.1523438,64.94140625,0.28515625,C C,1.856330124,1,H,21,NAN,2,39
3,1,1.0,2,0.375976563,1.0,1.0,1.0,0.0,292.96875,83.0078125,0.29296875,C,1.292455371,1,H,21,NAN,2,40
3,1,1.0,2,0.491210938,1.0,2.0,1.0,1.0,390.1367188,101.0742188,0.334472656,I C,1.1281679,1,H,21,NAN,2,41
3,1,1.0,1,0.41796875,1.0,1.0,1.0,0.0,330.078125,87.890625,0.330078125,C,1.048505414,1,H,21,NAN,2,42
3,1,1.0,2,0.332519531,1.0,1.0,1.0,0.0,195.3125,137.2070313,0.1953125,C,1.119167902,1,H,21,NAN,2,43
3,2,2.0,3,0.43359375,1.0,NAN,NAN,NAN,NAN,NAN,NAN,NAN,NAN,0,H,21,NAN,2,44
3,2,2.0,2,0.509765625,1.0,NAN,NAN,NAN,NAN,NAN,NAN,NAN,NAN,0,H,21,NAN,2,45
3,1,1.0,2,0.477539063,1.0,3.0,2.0,1.0,405.7617188,71.77734375,0.167480469,C I C,1.120742901,1,H,21,NAN,2,46
3,2,2.0,3,0.392089844,1.0,NAN,NAN,NAN,NAN,NAN,NAN,NAN,NAN,0,H,21,NAN,2,47
3,2,2.0,3,0.406738281,1.0,1.0,1.0,0.0,328.6132813,78.125,0.328613281,C,1.341142716,1,H,21,NAN,2,48
3,2,2.0,2,0.585449219,1.0,4.0,2.0,2.0,483.8867188,101.5625,0.010253906,I I C C,1.472830193,1,H,21,NAN,2,49
3,1,1.0,3,0.360351563,1.0,1.0,1.0,0.0,269.53125,90.8203125,0.26953125,C,1.205567886,1,H,21,NAN,2,50
3,1,2.0,0,0.460449219,0.0,2.0,1.0,1.0,333.984375,126.4648438,0.348144531,I,1.794555135,1,H,21,NAN,2,51
3,2,2.0,2,0.413574219,1.0,1.0,1.0,0.0,353.515625,60.05859375,0.353515625,C,1.782180137,1,H,21,NAN,2,52
3,1,1.0,4,0.370117188,1.0,1.0,1.0,0.0,286.6210938,83.49609375,0.286621094,C,1.365105358,1,H,21,NAN,2,53
3,1,1.0,2,0.528808594,1.0,1.0,1.0,0.0,448.7304688,80.078125,0.448730469,C,1.284217872,1,H,21,NAN,2,54
3,2,2.0,4,0.416992188,1.0,2.0,1.0,1.0,349.609375,67.3828125,0.28515625,I C,1.497567688,1,H,21,NAN,2,55
3,1,1.0,4,0.340332031,1.0,1.0,1.0,0.0,243.1640625,97.16796875,0.243164063,C,1.211305385,1,H,21,NAN,2,56
3,2,2.0,3,0.380859375,1.0,NAN,NAN,NAN,NAN,NAN,NAN,NAN,NAN,0,H,21,NAN,2,57
3,1,1.0,4,0.3984375,1.0,NAN,NAN,NAN,NAN,NAN,NAN,NAN,NAN,0,H,21,NAN,2,58
3,2,2.0,2,0.520996094,1.0,NAN,NAN,NAN,NAN,NAN,NAN,NAN,NAN,0,H,21,NAN,2,59
3,2,2.0,3,0.3984375,1.0,NAN,NAN,NAN,NAN,NAN,NAN,NAN,NAN,0,H,21,NAN,2,60
3,1,1.0,4,0.396972656,1.0,1.0,1.0,0.0,301.7578125,95.21484375,0.301757813,C,1.042255415,1,H,21,NAN,2,61
3,1,1.0,4,0.451660156,1.0,1.0,1.0,0.0,388.671875,62.98828125,0.388671875,C,1.152655396,1,H,21,NAN,2,62
3,2,2.0,4,0.470214844,1.0,2.0,1.0,1.0,407.7148438,62.5,0.270996094,I C,1.396842706,1,H,21,NAN,2,63
3,2,2.0,4,0.397949219,1.0,1.0,1.0,0.0,312.9882813,84.9609375,0.312988281,C,1.128267754,1,H,21,NAN,2,64
3,2,2.0,4,0.417480469,1.0,1.0,1.0,0.0,325.1953125,92.28515625,0.325195313,C,1.09818026,1,H,21,NAN,2,65
3,1,1.0,3,0.400390625,1.0,1.0,1.0,0.0,303.2226563,97.16796875,0.303222656,C,0.990292925,1,H,21,NAN,2,66
3,2,2.0,3,0.6953125,1.0,NAN,NAN,NAN,NAN,NAN,NAN,NAN,NAN,0,H,21,NAN,2,67
3,2,2.0,3,0.358886719,1.0,1.0,1.0,0.0,286.6210938,72.265625,0.286621094,C,1.293055225,1,H,21,NAN,2,68
3,2,2.0,3,0.421386719,1.0,2.0,1.0,1.0,357.421875,63.96484375,0.181152344,I C,1.577280174,1,H,21,NAN,2,69
3,1,1.0,4,0.400878906,1.0,1.0,1.0,0.0,312.0117188,88.8671875,0.312011719,C,1.267092875,1,H,21,NAN,2,70
3,1,1.0,1,0.629394531,1.0,NAN,NAN,NAN,NAN,NAN,NAN,NAN,NAN,0,H,21,NAN,3,1
3,1,1.0,1,0.430664063,1.0,1.0,1.0,0.0,350.5859375,80.078125,0.350585938,C,1.387917854,1,H,21,NAN,3,2
3,1,1.0,2,0.362792969,1.0,1.0,1.0,0.0,294.4335938,68.359375,0.294433594,C,1.497792834,1,H,21,NAN,3,3
3,2,2.0,2,0.500976563,1.0,4.0,1.0,3.0,446.2890625,54.6875,0.102050781,I I I C,1.852517625,1,H,21,NAN,3,4
3,2,2.0,3,0.34765625,1.0,1.0,1.0,0.0,282.2265625,65.4296875,0.282226563,C,1.482567691,1,H,21,NAN,3,5
3,1,1.0,4,0.388671875,1.0,1.0,1.0,0.0,315.4296875,73.2421875,0.315429688,C,1.262642876,1,H,21,NAN,3,6
3,2,1.0,0,0.369628906,0.0,1.0,0.0,1.0,281.25,88.37890625,0.28125,I,1.01605542,1,H,21,NAN,3,7
3,1,1.0,4,0.479492188,1.0,NAN,NAN,NAN,NAN,NAN,NAN,NAN,NAN,0,H,21,NAN,3,8
3,1,1.0,4,0.40234375,1.0,1.0,1.0,0.0,303.2226563,99.12109375,0.303222656,C,1.081842908,1,H,21,NAN,3,9
3,1,1.0,4,0.353027344,1.0,1.0,1.0,0.0,271.484375,81.54296875,0.271484375,C,1.373305356,1,H,21,NAN,3,10
3,2,2.0,3,0.471191406,1.0,3.0,1.0,2.0,404.7851563,66.40625,0.210449219,I I C,1.326117719,1,H,21,NAN,3,11
3,1,1.0,2,0.435058594,1.0,1.0,1.0,0.0,338.8671875,96.19140625,0.338867188,C,1.224717883,1,H,21,NAN,3,12
3,2,2.0,3,0.370117188,1.0,NAN,NAN,NAN,NAN,NAN,NAN,NAN,NAN,0,H,21,NAN,3,13
3,2,2.0,4,0.39453125,1.0,2.0,1.0,1.0,325.6835938,68.84765625,0.270996094,I C,1.332817718,1,H,21,NAN,3,14
3,2,2.0,4,0.354980469,1.0,1.0,1.0,0.0,272.4609375,82.51953125,0.272460938,C,1.126630255,1,H,21,NAN,3,15
3,2,2.0,3,0.436523438,1.0,2.0,1.0,1.0,358.8867188,77.63671875,0.307617188,I C,1.293805225,1,H,21,NAN,3,16
3,1,1.0,2,0.430175781,1.0,1.0,1.0,0.0,326.171875,104.0039063,0.326171875,C,0.96036793,1,H,21,NAN,3,17
3,2,2.0,3,0.41796875,1.0,NAN,NAN,NAN,NAN,NAN,NAN,NAN,NAN,0,H,21,NAN,3,18
3,1,1.0,4,0.462402344,1.0,2.0,1.0,1.0,357.421875,104.9804688,0.346191406,I C,0.918367938,1,H,21,NAN,3,19
3,1,1.0,3,0.470214844,1.0,1.0,1.0,0.0,370.6054688,99.609375,0.370605469,C,1.111455403,1,H,21,NAN,3,20
3,1,1.0,4,0.3359375,1.0,1.0,1.0,0.0,182.1289063,153.8085938,0.182128906,C,1.105492904,1,H,21,NAN,3,21
3,2,2.0,4,0.350585938,1.0,1.0,1.0,0.0,262.6953125,87.890625,0.262695313,C,1.133817753,1,H,21,NAN,3,22
3,1,1.0,4,0.412109375,1.0,1.0,1.0,0.0,272.9492188,139.1601563,0.272949219,C,0.861717948,1,H,21,NAN,3,23
3,2,2.0,4,0.609375,1.0,2.0,2.0,0.0,525.8789063,83.49609375,0.343261719,C C,1.465080194,1,H,21,NAN,3,24
3,1,1.0,3,0.376464844,1.0,1.0,1.0,0.0,288.5742188,87.890625,0.288574219,C,1.166592893,1,H,21,NAN,3,25
3,2,2.0,3,0.361816406,1.0,1.0,1.0,0.0,290.0390625,71.77734375,0.290039063,C,1.334767717,1,H,21,NAN,3,26
3,2,2.0,3,0.365234375,1.0,1.0,1.0,0.0,300.78125,64.453125,0.30078125,C,1.406042705,1,H,21,NAN,3,27
3,1,1.0,2,0.437011719,1.0,1.0,1.0,0.0,356.9335938,80.078125,0.356933594,C,1.069080411,1,H,21,NAN,3,28
3,1,1.0,2,0.411621094,1.0,1.0,1.0,0.0,307.6171875,104.0039063,0.307617188,C,1.088155407,1,H,21,NAN,3,29
3,1,1.0,4,0.392578125,1.0,1.0,1.0,0.0,301.7578125,90.8203125,0.301757813,C,1.156380395,1,H,21,NAN,3,30
3,1,1.0,3,0.330078125,1.0,1.0,1.0,0.0,204.5898438,125.4882813,0.204589844,C,1.010417921,1,H,21,NAN,3,31
3,2,2.0,4,0.442871094,1.0,1.0,1.0,0.0,352.5390625,90.33203125,0.352539063,C,1.187242744,1,H,21,NAN,3,32
3,1,1.0,1,0.467285156,1.0,1.0,1.0,0.0,327.1484375,140.1367188,0.327148438,C,1.113305403,1,H,21,NAN,3,33
3,1,1.0,3,0.339355469,1.0,1.0,1.0,0.0,193.8476563,145.5078125,0.193847656,C,1.153780395,1,H,21,NAN,3,34
3,2,2.0,2,0.432617188,1.0,2.0,1.0,1.0,366.2109375,66.40625,0.218261719,I C,1.403892705,1,H,21,NAN,3,35
3,2,2.0,4,0.406738281,1.0,1.0,1.0,0.0,326.6601563,80.078125,0.326660156,C,1.228192736,1,H,21,NAN,3,36
3,2,2.0,3,0.388671875,1.0,1.0,1.0,0.0,312.0117188,76.66015625,0.312011719,C,1.271067729,1,H,21,NAN,3,37
3,1,1.0,3,0.423828125,1.0,1.0,1.0,0.0,323.2421875,100.5859375,0.323242188,C,0.988555425,1,H,21,NAN,3,38
3,2,2.0,3,0.359375,1.0,1.0,1.0,0.0,282.7148438,76.66015625,0.282714844,C,1.356242714,1,H,21,NAN,3,39
3,2,2.0,3,0.370117188,1.0,1.0,1.0,0.0,285.15625,84.9609375,0.28515625,C,1.195367742,1,H,21,NAN,3,40
3,2,2.0,2,0.479003906,1.0,1.0,1.0,0.0,407.2265625,71.77734375,0.407226563,C,1.235592735,1,H,21,NAN,3,41
3,2,2.0,2,0.394042969,1.0,2.0,1.0,1.0,315.9179688,78.125,0.149902344,I C,1.21030524,1,H,21,NAN,3,42
3,1,1.0,3,0.37890625,1.0,1.0,1.0,0.0,284.6679688,94.23828125,0.284667969,C,1.089917907,1,H,21,NAN,3,43
3,2,2.0,3,0.373535156,1.0,1.0,1.0,0.0,302.2460938,71.2890625,0.302246094,C,1.323942719,1,H,21,NAN,3,44
3,2,2.0,3,0.384765625,1.0,1.0,1.0,0.0,302.734375,82.03125,0.302734375,C,1.200692741,1,H,21,NAN,3,45
3,2,2.0,4,0.3984375,1.0,1.0,1.0,0.0,327.1484375,71.2890625,0.327148438,C,1.32246772,1,H,21,NAN,3,46
3,1,1.0,3,0.372558594,1.0,1.0,1.0,0.0,289.5507813,83.0078125,0.289550781,C,1.143042897,1,H,21,NAN,3,47
3,1,1.0,3,0.409179688,1.0,1.0,1.0,0.0,312.9882813,96.19140625,0.312988281,C,0.924105437,1,H,21,NAN,3,48
3,2,2.0,4,0.460449219,1.0,1.0,1.0,0.0,378.4179688,82.03125,0.378417969,C,1.149080251,1,H,21,NAN,3,49
3,1,1.0,2,0.461425781,1.0,1.0,1.0,0.0,344.7265625,116.6992188,0.344726563,C,0.870905446,1,H,21,NAN,3,50
3,1,1.0,4,0.333984375,1.0,1.0,1.0,0.0,243.1640625,90.8203125,0.243164063,C,1.058967912,1,H,21,NAN,3,51
3,2,2.0,4,0.419921875,1.0,1.0,1.0,0.0,335.4492188,84.47265625,0.335449219,C,1.141705252,1,H,21,NAN,3,52
3,1,1.0,4,0.422363281,1.0,1.0,1.0,0.0,300.78125,121.5820313,0.30078125,C,0.829030454,1,H,21,NAN,3,53
3,2,2.0,3,0.385253906,1.0,1.0,1.0,0.0,307.6171875,77.63671875,0.307617188,C,1.218467738,1,H,21,NAN,3,54
3,2,2.0,2,0.697753906,1.0,4.0,2.0,2.0,646.9726563,50.78125,0.070800781,I C I C,2.985692422,1,H,21,NAN,3,55
3,2,2.0,2,0.369140625,1.0,2.0,1.0,1.0,313.4765625,55.6640625,0.241699219,I C,1.478942692,1,H,21,NAN,3,56
3,1,1.0,2,0.634277344,1.0,3.0,1.0,2.0,536.1328125,98.14453125,0.32421875,I C,1.449067843,1,H,21,NAN,3,57
3,2,2.0,1,0.379882813,1.0,2.0,1.0,1.0,309.5703125,70.3125,0.27734375,I C,1.386892708,1,H,21,NAN,3,58
3,1,1.0,3,0.414550781,1.0,1.0,1.0,0.0,315.9179688,98.6328125,0.315917969,C,1.154267895,1,H,21,NAN,3,59
3,1,1.0,3,0.457519531,1.0,3.0,2.0,1.0,377.9296875,79.58984375,0.294433594,C I C,1.318767866,1,H,21,NAN,3,60
3,2,2.0,3,0.3515625,1.0,2.0,1.0,1.0,291.015625,60.546875,0.1328125,I C,1.527217683,1,H,21,NAN,3,61
3,2,2.0,2,0.481445313,1.0,2.0,1.0,1.0,408.203125,73.2421875,0.302734375,I C,1.315880221,1,H,21,NAN,3,62
3,2,2.0,4,0.430175781,1.0,2.0,1.0,1.0,369.140625,61.03515625,0.236816406,I C,1.479717691,1,H,21,NAN,3,63
3,1,1.0,3,0.374023438,1.0,1.0,1.0,0.0,265.625,108.3984375,0.265625,C,0.898555441,1,H,21,NAN,3,64
3,1,1.0,4,0.420898438,1.0,1.0,1.0,0.0,312.9882813,107.9101563,0.312988281,C,1.07515541,1,H,21,NAN,3,65
3,2,2.0,2,0.419921875,1.0,2.0,1.0,1.0,321.7773438,98.14453125,0.223144531,I C,1.122792755,1,H,21,NAN,3,66
3,1,1.0,4,0.375976563,1.0,1.0,1.0,0.0,281.7382813,94.23828125,0.281738281,C,1.079255409,1,H,21,NAN,3,67
3,2,2.0,4,0.399414063,1.0,1.0,1.0,0.0,309.0820313,90.33203125,0.309082031,C,1.119730256,1,H,21,NAN,3,68
3,2,2.0,4,0.357910156,1.0,1.0,1.0,0.0,256.8359375,101.0742188,0.256835938,C,1.084367762,1,H,21,NAN,3,69
3,2,2.0,4,0.364257813,1.0,1.0,1.0,0.0,278.8085938,85.44921875,0.278808594,C,1.139242752,1,H,21,NAN,3,70
3,1,2.0,3,0.737792969,0.0,NAN,NAN,NAN,NAN,NAN,NAN,NAN,NAN,0,H,21,NAN,4,1
3,1,1.0,2,0.502441406,1.0,NAN,NAN,NAN,NAN,NAN,NAN,NAN,NAN,0,H,21,NAN,4,2
3,1,1.0,2,0.411132813,1.0,2.0,1.0,1.0,347.1679688,63.96484375,0.209472656,I C,1.151842896,1,H,21,NAN,4,3
3,2,2.0,2,0.388671875,1.0,2.0,1.0,1.0,332.03125,56.640625,0.296875,I C,1.645180162,1,H,21,NAN,4,4
3,1,1.0,2,0.375488281,1.0,1.0,1.0,0.0,297.3632813,78.125,0.297363281,C,1.117805402,1,H,21,NAN,4,5
3,1,1.0,2,0.38671875,1.0,1.0,1.0,0.0,239.2578125,147.4609375,0.239257813,C,1.093267906,1,H,21,NAN,4,6
3,1,1.0,3,0.440429688,1.0,1.0,1.0,0.0,378.4179688,62.01171875,0.378417969,C,1.265030376,1,H,21,NAN,4,7
3,1,1.0,4,0.380371094,1.0,1.0,1.0,0.0,288.5742188,91.796875,0.288574219,C,0.974705428,1,H,21,NAN,4,8
3,1,1.0,4,0.354003906,1.0,1.0,1.0,0.0,233.8867188,120.1171875,0.233886719,C,0.917492938,1,H,21,NAN,4,9
3,2,2.0,4,0.415527344,1.0,2.0,1.0,1.0,323.7304688,91.796875,0.177734375,I C,1.147492751,1,H,21,NAN,4,10
3,1,1.0,4,0.423339844,1.0,3.0,2.0,1.0,355.9570313,67.3828125,0.23828125,C I C,1.158542895,1,H,21,NAN,4,11
3,2,2.0,3,0.376953125,1.0,NAN,NAN,NAN,NAN,NAN,NAN,NAN,NAN,0,H,21,NAN,4,12
3,1,1.0,3,0.361816406,1.0,1.0,1.0,0.0,201.171875,160.6445313,0.201171875,C,0.862092948,1,H,21,NAN,4,13
3,2,2.0,3,0.581054688,1.0,2.0,2.0,0.0,508.3007813,72.75390625,0.297851563,C C,2.227667558,1,H,21,NAN,4,14
3,1,1.0,4,0.333007813,1.0,1.0,1.0,0.0,240.7226563,92.28515625,0.240722656,C,1.104880404,1,H,21,NAN,4,15
3,2,2.0,4,0.440917969,1.0,2.0,1.0,1.0,370.1171875,70.80078125,0.271972656,I C,1.424192701,1,H,21,NAN,4,16
3,2,1.0,0,0.571777344,0.0,2.0,0.0,2.0,397.9492188,173.828125,0.256347656,I I,1.148217896,1,H,21,NAN,4,17
3,1,1.0,4,0.397949219,1.0,1.0,1.0,0.0,308.1054688,89.84375,0.308105469,C,1.309130368,1,H,21,NAN,4,18
3,2,2.0,3,0.358398438,1.0,1.0,1.0,0.0,280.2734375,78.125,0.280273438,C,1.406855205,1,H,21,NAN,4,19
3,2,2.0,2,0.374023438,1.0,1.0,1.0,0.0,297.8515625,76.171875,0.297851563,C,1.295255224,1,H,21,NAN,4,20
3,1,1.0,2,0.425292969,1.0,1.0,1.0,0.0,286.1328125,139.1601563,0.286132813,C,1.076730409,1,H,21,NAN,4,21
3,1,1.0,3,0.399414063,1.0,1.0,1.0,0.0,320.3125,79.1015625,0.3203125,C,1.18383039,1,H,21,NAN,4,22
3,1,1.0,4,0.361328125,1.0,1.0,1.0,0.0,264.1601563,97.16796875,0.264160156,C,1.171880392,1,H,21,NAN,4,23
3,2,2.0,4,0.432128906,1.0,2.0,1.0,1.0,359.8632813,72.265625,0.155761719,I C,1.372355211,1,H,21,NAN,4,24
3,2,2.0,4,0.367675781,1.0,1.0,1.0,0.0,289.5507813,78.125,0.289550781,C,1.146305251,1,H,21,NAN,4,25
3,1,1.0,1,0.442382813,1.0,1.0,1.0,0.0,317.8710938,124.5117188,0.317871094,C,1.066317911,1,H,21,NAN,4,26
3,2,2.0,1,0.386230469,1.0,1.0,1.0,0.0,286.1328125,100.0976563,0.286132813,C,1.148442751,1,H,21,NAN,4,27
3,2,2.0,2,0.815429688,1.0,3.0,2.0,1.0,755.3710938,60.05859375,0.25390625,I C C,2.446930019,1,H,21,NAN,4,28
3,2,2.0,2,0.3125,1.0,2.0,1.0,1.0,233.3984375,79.1015625,0.155761719,I C,1.584542673,1,H,21,NAN,4,29
3,1,1.0,3,0.447265625,1.0,1.0,1.0,0.0,371.09375,76.171875,0.37109375,C,1.157480395,1,H,21,NAN,4,30
3,2,2.0,4,0.379882813,1.0,2.0,1.0,1.0,309.0820313,70.80078125,0.138183594,I C,1.518855184,1,H,21,NAN,4,31
3,2,2.0,4,0.327148438,1.0,1.0,1.0,0.0,264.6484375,62.5,0.264648438,C,1.88188012,1,H,21,NAN,4,32
3,1,1.0,3,0.557128906,1.0,4.0,2.0,2.0,483.3984375,73.73046875,0.252441406,I C I C,1.155917895,1,H,21,NAN,4,33
3,1,1.0,4,0.412597656,1.0,1.0,1.0,0.0,308.1054688,104.4921875,0.308105469,C,0.993192924,1,H,21,NAN,4,34
3,2,2.0,4,0.392089844,1.0,3.0,1.0,2.0,324.21875,67.87109375,0.152832031,I I C,1.642717662,1,H,21,NAN,4,35
3,2,2.0,4,0.355957031,1.0,2.0,1.0,1.0,282.7148438,73.2421875,0.146972656,I C,1.37583021,1,H,21,NAN,4,36
3,1,2.0,0,0.52734375,0.0,3.0,1.0,2.0,404.7851563,122.5585938,0.249023438,I C I,1.548180179,1,H,21,NAN,4,37
3,2,2.0,4,0.424316406,1.0,2.0,1.0,1.0,367.1875,57.12890625,0.26953125,I C,1.893242618,1,H,21,NAN,4,38
3,2,2.0,3,0.383789063,1.0,2.0,1.0,1.0,301.7578125,82.03125,0.225585938,I C,1.255017732,1,H,21,NAN,4,39
3,2,2.0,3,0.367675781,1.0,1.0,1.0,0.0,291.5039063,76.171875,0.291503906,C,1.395080207,1,H,21,NAN,4,40
3,1,1.0,3,0.428222656,1.0,1.0,1.0,0.0,349.1210938,79.1015625,0.349121094,C,1.045480415,1,H,21,NAN,4,41
3,2,2.0,4,0.385253906,1.0,1.0,1.0,0.0,304.1992188,81.0546875,0.304199219,C,1.291842725,1,H,21,NAN,4,42
3,1,1.0,4,0.379394531,1.0,1.0,1.0,0.0,286.1328125,93.26171875,0.286132813,C,1.069142911,1,H,21,NAN,4,43
3,1,1.0,4,0.458496094,1.0,1.0,1.0,0.0,360.8398438,97.65625,0.360839844,C,1.069805411,1,H,21,NAN,4,44
3,1,1.0,1,0.400878906,1.0,1.0,1.0,0.0,224.1210938,176.7578125,0.224121094,C,1.377405356,1,H,21,NAN,4,45
3,2,2.0,2,0.387695313,1.0,2.0,1.0,1.0,298.828125,88.8671875,0.203613281,I C,1.168542747,1,H,21,NAN,4,46
3,1,1.0,2,0.454101563,1.0,1.0,1.0,0.0,246.5820313,207.5195313,0.246582031,C,1.006230422,1,H,21,NAN,4,47
3,2,2.0,3,0.418457031,1.0,1.0,1.0,0.0,340.8203125,77.63671875,0.340820313,C,1.250980232,1,H,21,NAN,4,48
3,1,1.0,4,0.388183594,1.0,1.0,1.0,0.0,291.5039063,96.6796875,0.291503906,C,1.195167888,1,H,21,NAN,4,49
3,2,2.0,3,0.471191406,1.0,1.0,1.0,0.0,385.7421875,85.44921875,0.385742188,C,1.187855244,1,H,21,NAN,4,50
3,1,1.0,4,0.384765625,1.0,1.0,1.0,0.0,267.0898438,117.6757813,0.267089844,C,0.985092926,1,H,21,NAN,4,51
3,2,2.0,4,0.425292969,1.0,2.0,1.0,1.0,335.4492188,89.84375,0.246582031,I C,1.144880251,1,H,21,NAN,4,52
3,1,1.0,4,0.405273438,1.0,1.0,1.0,0.0,293.9453125,111.328125,0.293945313,C,1.125205401,1,H,21,NAN,4,53
3,1,1.0,4,0.525390625,1.0,3.0,1.0,2.0,360.3515625,165.0390625,0.287109375,I C,1.120117902,1,H,21,NAN,4,54
3,1,1.0,4,0.366210938,1.0,1.0,1.0,0.0,254.3945313,111.8164063,0.254394531,C,0.971755428,1,H,21,NAN,4,55
3,1,1.0,4,0.352050781,1.0,1.0,1.0,0.0,266.1132813,85.9375,0.266113281,C,1.078655409,1,H,21,NAN,4,56
3,2,2.0,4,0.414550781,1.0,2.0,1.0,1.0,348.1445313,66.40625,0.228027344,I C,1.290017725,1,H,21,NAN,4,57
3,1,1.0,3,0.381347656,1.0,1.0,1.0,0.0,267.0898438,114.2578125,0.267089844,C,0.995592924,1,H,21,NAN,4,58
3,2,2.0,3,0.400390625,1.0,2.0,1.0,1.0,324.21875,76.171875,0.291992188,I C,1.188692744,1,H,21,NAN,4,59
3,2,2.0,3,0.481445313,1.0,2.0,1.0,1.0,382.3242188,99.12109375,0.37109375,I C,1.222305238,1,H,21,NAN,4,60
3,1,1.0,4,0.388183594,1.0,1.0,1.0,0.0,293.4570313,94.7265625,0.293457031,C,1.007192922,1,H,21,NAN,4,61
3,2,2.0,4,0.4296875,1.0,2.0,1.0,1.0,347.65625,82.03125,0.258300781,I C,1.215255239,1,H,21,NAN,4,62
3,1,1.0,1,0.524414063,1.0,1.0,1.0,0.0,426.7578125,97.65625,0.426757813,C,1.034205417,1,H,21,NAN,4,63
3,2,2.0,3,0.44140625,1.0,NAN,NAN,NAN,NAN,NAN,NAN,NAN,NAN,0,H,21,NAN,4,64
3,2,2.0,3,0.654785156,1.0,2.0,2.0,0.0,537.5976563,117.1875,0.338867188,C C,1.357567713,1,H,21,NAN,4,65
3,1,1.0,4,0.399414063,1.0,1.0,1.0,0.0,288.0859375,111.328125,0.288085938,C,1.100467905,1,H,21,NAN,4,66
3,2,1.0,0,0.387207031,0.0,1.0,0.0,1.0,225.5859375,161.6210938,0.225585938,I,1.07136791,1,H,21,NAN,4,67
3,2,2.0,3,0.473144531,1.0,1.0,1.0,0.0,392.578125,80.56640625,0.392578125,C,1.304280223,1,H,21,NAN,4,68
3,2,2.0,2,0.489257813,1.0,1.0,1.0,0.0,399.9023438,89.35546875,0.399902344,C,1.225305237,1,H,21,NAN,4,69
3,2,2.0,3,0.331542969,1.0,1.0,1.0,0.0,260.2539063,71.2890625,0.260253906,C,1.37876771,1,H,21,NAN,4,70
3,2,2.0,1,0.483398438,1.0,2.0,1.0,1.0,387.6953125,95.703125,0.186035156,I C,1.485105191,1,H,21,NAN,5,1
3,2,2.0,2,0.396972656,1.0,2.0,1.0,1.0,305.6640625,91.30859375,0.138183594,I C,1.286142726,1,H,21,NAN,5,2
3,1,1.0,3,0.434570313,1.0,4.0,3.0,1.0,366.2109375,68.359375,0.234863281,C C I C,1.174367892,1,H,21,NAN,5,3
3,2,2.0,2,0.319335938,1.0,1.0,1.0,0.0,225.5859375,93.75,0.225585938,C,1.137692753,1,H,21,NAN,5,4
3,1,1.0,3,0.349609375,1.0,1.0,1.0,0.0,254.3945313,95.21484375,0.254394531,C,1.043480415,1,H,21,NAN,5,5
3,2,2.0,3,0.375,1.0,2.0,1.0,1.0,280.7617188,94.23828125,0.098632813,I C,1.121680256,1,H,21,NAN,5,6
3,1,1.0,4,0.397949219,1.0,1.0,1.0,0.0,257.3242188,140.625,0.257324219,C,1.01649292,1,H,21,NAN,5,7
3,1,1.0,4,0.404296875,1.0,1.0,1.0,0.0,283.203125,121.09375,0.283203125,C,1.037842916,1,H,21,NAN,5,8
3,2,2.0,2,0.624511719,1.0,1.0,1.0,0.0,318.8476563,305.6640625,0.318847656,C,1.624255166,1,H,21,NAN,5,9
3,1,1.0,3,0.378417969,1.0,1.0,1.0,0.0,282.2265625,96.19140625,0.282226563,C,1.059367912,1,H,21,NAN,5,10
3,1,1.0,3,0.380859375,1.0,1.0,1.0,0.0,291.5039063,89.35546875,0.291503906,C,0.989730425,1,H,21,NAN,5,11
3,2,2.0,2,0.440917969,1.0,2.0,1.0,1.0,361.328125,79.58984375,0.286621094,I C,1.369617711,1,H,21,NAN,5,12
3,1,1.0,4,0.401367188,1.0,1.0,1.0,0.0,268.5546875,132.8125,0.268554688,C,0.936717934,1,H,21,NAN,5,13
3,1,1.0,3,0.385253906,1.0,1.0,1.0,0.0,273.9257813,111.328125,0.273925781,C,0.985030426,1,H,21,NAN,5,14
3,2,1.0,0,0.413085938,0.0,2.0,1.0,1.0,269.0429688,144.0429688,0.401367188,I,0.807692957,1,H,21,NAN,5,15
3,1,1.0,4,0.443359375,1.0,1.0,1.0,0.0,320.3125,123.046875,0.3203125,C,0.975555427,1,H,21,NAN,5,16
