Subj_idx,Block,Trial_in_block,Trial,Stimulus,RT_start,Response,Confidence,RT_conf,ErrorDirection,RT_error
1,3,1,93,6,0.70638,4.9374,2,3.7141,0,2.1752
1,3,2,94,6,0.61856,5.3342,3,1.2479,0,0.51373
1,3,3,95,3,0.71808,3.97,3,1.5122,0,0.5417
1,3,4,96,6,0.49204,5.2772,2,1.4411,0,0.47363
1,3,5,97,3,0.80509,3.498,2,3.6506,0,0.53893
1,3,6,98,3,0.63994,1.9258,3,1.1989,0,0.81612
1,3,7,99,3,0.56087,3.0303,3,1.1627,0,1.1007
1,3,8,100,3,1.2087,4.2259,3,1.2541,1,3.3843
1,3,9,101,3,0.84864,4.2545,3,1.6116,1,1.4653
1,3,10,102,6,0.55896,4.7268,2,1.9428,0,1.9124
1,3,11,103,3,0.74438,3.4551,2,1.7659,0,0.48893
1,3,12,104,6,0.70998,4.9776,2,10.843,0,1.8276
1,3,13,105,3,0.76866,3.6963,2,1.5479,0,0.51409
1,3,14,106,3,0.60496,3.1867,3,1.0904,0,0.61145
1,3,15,107,6,0.60278,6.7717,3,1.4599,1,0.51385
1,3,16,108,3,0.66086,4.017,3,4.9756,0,0.74007
1,3,17,109,6,0.63874,6.3369,2,1.8983,1,0.6872
1,3,18,110,3,0.67953,2.8936,2,1.9484,0,0.77495
1,3,19,111,6,0.62882,4.5438,2,1.2561,1,0.5598
1,3,20,112,3,0.60511,4.737,2,2.1726,0,0.54454
1,3,21,113,6,0.56253,5.0685,3,2.6989,0,0.50385
1,3,22,114,6,1.578,5.8909,3,1.2507,1,0.81893
1,3,23,115,3,0.85559,2.8739,3,1.1818,0,0.70296
1,3,24,116,3,0.65139,2.5576,3,1.9838,0,1.3391
1,3,25,117,6,0.62942,5.02,3,1.5249,1,0.96195
1,3,26,118,3,0.68097,2.8539,3,1.2655,0,0.4542
1,3,27,119,3,0.77103,3.5234,2,1.1921,1,0.66401
1,3,28,120,6,0.77216,4.8983,2,2.2088,1,0.59841
1,3,29,121,3,0.56509,3.2429,3,1.1326,0,0.52953
1,3,30,122,3,0.50398,3.5496,3,2.4507,0,0.71473
1,3,31,123,3,0.57267,3.5378,3,1.1772,0,0.56409
1,3,32,124,6,0.58578,5.3713,3,2.2144,1,1.4653
1,3,33,125,6,0.54347,4.8047,3,2.1976,0,0.50457
1,3,34,126,6,0.36185,4.5942,2,1.6192,1,0.85442
1,3,35,127,3,0.63644,2.6973,3,1.8903,0,0.62093
1,3,36,128,3,0.62147,2.7869,2,1.3163,0,0.5912
1,3,37,129,3,0.84148,2.5888,2,9.7072,0,0.74088
1,3,38,130,6,0.70486,5.1608,3,1.3296,1,2.1794
1,3,39,131,6,1.1431,4.8519,3,2.2624,0,0.96429
1,3,40,132,3,0.69167,3.1524,3,1.013,0,0.85238
1,3,41,133,3,0.54607,3.9695,3,1.3358,0,0.72023
1,3,42,134,3,0.54495,4.4556,1,1.2386,1,0.88472
1,3,43,135,6,0.99113,4.9376,3,2.651,0,0.75319
1,3,44,136,6,0.86875,6.1331,2,1.8315,0,1.2004
1,3,45,137,6,0.69156,5.6274,3,1.1021,0,0.68149
1,3,46,138,3,1.1953,3.2024,3,1.2655,0,0.6773
1,3,47,139,6,0.76101,6.6178,3,1.268,1,0.58138
1,3,48,140,3,0.84794,4.3462,3,1.2576,1,0.73675
1,3,49,141,6,6.3422,4.3526,1,1.039,0,0.78729
1,3,50,142,6,0.84598,5.6311,1,1.3308,1,0.86541
1,3,51,143,3,0.69722,4.8071,3,1.1011,0,0.55582
1,3,52,144,3,3.1513,3.3803,3,2.6991,0,0.95419
1,3,53,145,3,1.3089,3.2501,3,3.8611,0,0.64617
1,3,54,146,3,0.69577,2.7569,3,0.89428,0,3.3788
1,3,55,147,6,0.97468,6.0761,3,1.0994,0,1.129
1,3,56,148,3,1.5536,2.6068,3,1.2326,0,1.6282
1,3,57,149,6,0.86288,5.4809,3,1.2196,0,0.71886
1,3,58,150,6,0.57492,4.9653,3,1.3094,1,0.56339
1,3,59,151,6,0.5917,5.4284,2,1.3284,1,0.74065
1,3,60,152,6,0.57361,7.4887,2,1.2454,1,0.91748
1,3,61,153,3,0.68788,2.2113,3,0.88682,0,0.62152
1,3,62,154,3,0.87341,4.1373,3,1.7868,0,0.55657
1,3,63,155,3,0.6575,3.6884,2,1.7142,0,0.64293
1,3,64,156,3,0.80529,3.8245,1,1.9541,0,0.70765
1,3,65,157,3,2.1893,3.632,3,1.4883,0,0.57069
1,3,66,158,6,0.61739,4.9447,3,1.4038,0,0.60846
1,3,67,159,3,0.72382,3.9509,3,1.0012,0,0.9066
1,3,68,160,6,0.88594,4.7198,2,1.4393,1,1.0977
1,3,69,161,3,0.71285,3.8811,2,1.2361,1,0.60854
1,3,70,162,6,0.77045,6.06,3,1.2879,1,2.5091
1,3,71,163,6,1.0483,4.8953,3,1.6814,1,0.76338
1,3,72,164,6,0.63587,6.1344,2,1.2331,1,0.87944
1,3,73,165,6,0.52096,4.9614,2,1.1678,0,0.79346
1,3,74,166,6,1.111,5.0905,3,1.0253,0,1.0897
1,3,75,167,3,0.67805,2.4681,3,1.0767,0,0.64092
1,3,76,168,6,0.70193,5.458,3,1.2132,0,0.7138
1,3,77,169,3,0.76273,3.3562,3,1.1792,0,0.95061
1,3,78,170,6,0.72792,5.7688,3,1.0599,1,1.3634
1,3,79,171,6,0.70726,6.0382,3,1.2492,1,0.70368
1,3,80,172,6,1.2413,4.9626,2,1.6055,1,0.63489
1,3,81,173,6,0.89884,5.3285,3,0.91679,0,1.6067
1,3,82,174,6,0.79154,6.8645,3,1.0895,1,0.56071
1,3,83,175,6,0.69419,4.1418,3,1.0293,0,0.58947
1,3,84,176,6,0.55429,5.485,3,1.0858,1,0.91955
1,3,85,177,3,0.68196,3.2421,2,1.2071,0,0.46238
1,3,86,178,6,0.96638,7.3421,1,1.562,1,0.65372
1,3,87,179,3,0.99272,3.252,3,1.076,0,0.51395
1,3,88,180,3,1.1725,2.8741,3,1.8311,0,0.54313
1,3,89,181,6,0.8668,5.6931,3,1.8269,0,0.8258
1,3,90,182,6,1.2274,5.0398,3,1.3256,1,0.63851
1,3,91,183,3,1.1474,2.6934,3,1.1855,0,0.59406
1,3,92,184,3,0.78667,3.0602,3,1.5586,0,0.58774
2,3,1,93,6,1.0577,6.4132,2,1.8151,0,1.3639
2,3,2,94,6,1.1419,4.8,2,1.674,0,0.97277
2,3,3,95,6,1.0934,7.2896,3,1.398,0,1.5021
2,3,4,96,6,1.1357,5.6697,3,2.3738,0,1.1463
2,3,5,97,3,0.86002,3.4027,2,0.8389,0,0.54939
2,3,6,98,3,0.8417,4.5641,3,1.2344,0,0.63085
2,3,7,99,6,0.88359,7.8199,2,1.8667,1,2.3409
2,3,8,100,3,0.7631,2.3317,3,1.1615,0,1.6037
2,3,9,101,3,0.88959,4.0249,2,0.91729,1,0.88106
2,3,10,102,3,0.85453,3.0481,3,0.83964,0,1.512
2,3,11,103,3,0.81807,3.407,3,0.90569,0,0.93609
2,3,12,104,6,0.91242,6.6676,3,1.2689,1,2.1817
2,3,13,105,6,0.68393,5.2197,2,2.213,0,1.4767
2,3,14,106,3,1.1107,3.1776,3,1.335,0,1.5435
2,3,15,107,6,0.91085,6.4396,3,1.6755,0,1.75
2,3,16,108,6,0.87627,6.7525,3,1.7068,0,1.4475
2,3,17,109,6,1.0529,7.3213,2,0.85741,1,0.96331
2,3,18,110,6,1.0456,6.5916,3,2.9392,0,3.9074
2,3,19,111,6,0.93169,6.7829,2,1.3924,0,1.4382
2,3,20,112,3,0.91784,2.1327,2,1.0386,1,1.0232
2,3,21,113,3,0.8089,3.8891,2,1.0398,1,1.024
2,3,22,114,6,0.83677,6.6849,1,1.0808,1,0.96534
2,3,23,115,3,0.76537,1.7545,2,1.1076,1,0.80048
2,3,24,116,3,0.73917,3.288,2,1.0278,0,1.0915
2,3,25,117,6,0.67661,8.1407,2,1.3342,1,0.80528
2,3,26,118,3,0.71241,2.2321,2,1.1122,0,0.60554
2,3,27,119,6,0.623,6.3891,1,1.0982,0,0.96674
2,3,28,120,3,0.72204,3.6621,2,2.3224,0,1.2067
2,3,29,121,6,0.85247,5.4214,2,2.6628,1,5.426
2,3,30,122,6,0.57854,7.0933,1,1.0633,0,0.8402
2,3,31,123,3,0.6425,2.8165,2,0.97447,1,0.96385
2,3,32,124,3,0.7069,2.1513,3,0.98971,1,1.4252
2,3,33,125,3,0.63571,2.6466,3,2.4639,0,0.55072
2,3,34,126,6,1.1523,5.894,2,1.2273,1,0.83922
2,3,35,127,3,0.76749,1.5445,3,1.5127,0,1.7011
2,3,36,128,6,0.67657,5.5288,2,0.99198,1,0.86423
2,3,37,129,3,0.69379,3.2548,2,0.95316,0,0.83336
2,3,38,130,6,0.51475,4.6687,1,1.1,0,3.0048
2,3,39,131,6,0.63856,5.4108,2,1.3151,1,1.3039
2,3,40,132,6,0.65053,6.1564,2,3.4754,0,3.3197
2,3,41,133,6,0.28848,5.313,1,1.4303,0,0.88873
2,3,42,134,6,0.55888,7.1532,2,1.6079,1,1.4363
2,3,43,135,6,0.61576,4.1176,1,0.97687,0,0.80316
2,3,44,136,3,0.71722,2.1565,2,1.3201,1,0.69659
2,3,45,137,3,0.6668,3.1939,2,2.1466,0,0.8406
2,3,46,138,6,0.70935,6.7534,1,0.94606,1,1.1139
2,3,47,139,6,0.67129,5.3613,1,3.5526,0,0.95455
2,3,48,140,6,0.6279,7.3553,1,1.0698,1,0.72127
2,3,49,141,3,0.57342,3.763,2,1.5115,0,2.0392
2,3,50,142,3,0.69391,3.767,1,1.1765,1,1.0018
2,3,51,143,6,0.93016,5.5688,2,1.8479,0,1.7423
2,3,52,144,3,1.7457,3.152,2,1.801,0,1.2425
2,3,53,145,3,0.91852,3.6578,2,3.5792,0,2.1232
2,3,54,146,3,0.58239,3.08,2,1.4001,0,1.3168
2,3,55,147,6,0.66716,4.8581,1,1.5633,1,2.0051
2,3,56,148,3,0.7294,3.2312,3,1.4254,0,0.58743
2,3,57,149,3,0.98305,3.9181,3,1.6382,0,0.57114
2,3,58,150,6,0.94164,6.2771,3,0.99931,1,0.69211
2,3,59,151,6,1.0008,5.868,3,1.7584,1,1.5742
2,3,60,152,6,0.77224,6.3369,3,0.97219,1,1.2851
2,3,61,153,3,0.721,3.1849,3,1.1388,0,1.1598
2,3,62,154,3,0.64935,3.4691,3,1.1379,1,1.4464
2,3,63,155,3,0.88977,3.7501,2,0.8759,0,0.5901
2,3,64,156,3,0.61998,2.9838,3,0.8501,0,0.54336
2,3,65,157,6,0.88925,5.7999,3,0.99441,1,1.7299
2,3,66,158,3,0.61723,2.8702,3,1.0777,0,0.55463
2,3,67,159,6,0.5905,5.8386,3,1.2256,0,1.189
2,3,68,160,3,0.6692,3.1967,3,1.4128,0,0.75424
2,3,69,161,6,0.56158,6.3554,3,1.1238,1,0.82564
2,3,70,162,3,0.55409,3.311,3,1.3093,0,1.2771
2,3,71,163,6,0.51699,6.3319,2,0.85538,1,0.77305
2,3,72,164,3,0.64284,2.6535,3,0.84196,1,0.75128
2,3,73,165,3,0.51332,2.8704,3,0.9031,0,0.52147
2,3,74,166,6,0.59141,6.0896,3,1.0125,0,1.0514
2,3,75,167,3,0.51309,3.3957,3,0.74709,1,1.191
2,3,76,168,3,0.5194,3.4979,3,2.3746,0,1.1718
2,3,77,169,6,0.56218,6.3556,2,0.81249,1,0.95073
2,3,78,170,3,0.57134,3.4742,2,1.167,0,0.60596
2,3,79,171,6,0.86375,6.0809,2,3.142,1,2.2334
2,3,80,172,3,0.61651,2.7443,2,1.0108,0,0.62807
2,3,81,173,3,0.47067,3.5239,3,2.3173,0,1.7895
2,3,82,174,6,0.55269,5.4844,3,0.85904,1,0.87629
2,3,83,175,3,0.54873,1.8056,2,1.2086,0,0.57641
2,3,84,176,6,0.55164,5.9076,3,1.0151,0,0.84138
2,3,85,177,6,0.5284,5.7304,3,1.1798,1,0.80202
2,3,86,178,3,0.65199,3.0954,3,1.7484,1,2.427
2,3,87,179,6,0.54153,6.2776,2,1.1001,1,0.76809
2,3,88,180,6,0.55751,6.0774,2,1.3007,0,0.693
2,3,89,181,3,0.65973,3.1778,3,0.82388,0,1.3747
2,3,90,182,3,0.52925,3.5059,1,0.87906,1,0.80178
2,3,91,183,6,0.60428,6.6119,2,2.7993,0,1.1043
2,3,92,184,3,0.7309,3.7322,2,0.58771,1,0.67313
3,3,1,93,6,0.87049,7.2354,3,0.7425,1,0.95355
3,3,2,94,3,1.9945,3.2641,3,0.33728,1,0.4872
3,3,3,95,6,0.91277,4.619,2,1.1998,0,1.3425
3,3,4,96,3,1.0862,4.2084,3,0.38006,1,0.5278
3,3,5,97,3,0.79155,3.577,3,0.62025,1,0.5222
3,3,6,98,6,0.65707,6.4384,3,0.62247,1,0.47519
3,3,7,99,6,0.92645,7.6271,3,0.43793,1,0.43613
3,3,8,100,3,0.80938,4.3653,3,0.37322,1,0.62619
3,3,9,101,3,0.61845,4.3954,3,0.34593,1,0.60159
3,3,10,102,6,0.68177,6.5057,3,0.47268,1,0.46362
3,3,11,103,3,1.0012,4.62,3,0.26363,1,0.37936
3,3,12,104,3,0.53989,1.4628,1,6.876,0,0.58884
3,3,13,105,3,0.56334,0.44525,2,1.8522,0,0.49226
3,3,14,106,3,0.61289,4.208,3,0.24138,1,0.40191
3,3,15,107,3,0.54063,4.9392,3,0.58686,1,0.4859
3,3,16,108,6,0.59323,7.43,3,0.66197,1,0.963
3,3,17,109,6,0.7251,6.59,3,0.88579,1,0.60843
3,3,18,110,6,0.55802,6.8024,3,0.38164,1,0.45549
3,3,19,111,6,0.64741,7.3833,3,0.95323,1,0.48338
3,3,20,112,3,0.55935,4.1654,3,0.37423,1,0.44016
3,3,21,113,3,0.71232,5.9552,3,0.77516,1,0.52751
3,3,22,114,3,0.59368,5.5919,3,0.80043,1,0.63215
3,3,23,115,3,0.54481,4.8935,3,0.5035,1,0.37332
3,3,24,116,3,0.79426,3.5663,3,0.53845,1,0.51249
3,3,25,117,6,3.4039,5.3818,3,0.29464,1,0.91521
3,3,26,118,6,0.59004,6.0757,3,0.39839,1,0.29328
3,3,27,119,3,0.66573,4.0805,3,0.31025,1,0.27533
3,3,28,120,6,0.6423,8.3041,3,0.27851,1,0.27822
3,3,29,121,6,0.84435,8.2413,3,0.48446,1,0.47079
3,3,30,122,3,0.86039,4.2153,3,0.29917,1,0.25702
3,3,31,123,6,0.80409,5.9595,3,0.25054,1,0.27061
3,3,32,124,3,1.3574,4.4994,3,0.31125,1,0.30139
3,3,33,125,6,1.5168,6.8838,2,0.24122,1,0.27707
3,3,34,126,6,0.95914,7.2774,3,0.21382,1,0.20543
3,3,35,127,6,1.3849,14.881,1,0.92316,1,0.9129
3,3,36,128,3,0.97907,4.6554,3,0.17453,1,0.19071
3,3,37,129,6,0.70987,7.5406,3,0.19846,1,0.25531
3,3,38,130,6,0.71838,7.1706,3,0.21918,1,0.24772
3,3,39,131,3,0.87861,3.9802,2,0.096701,1,0.23086
3,3,40,132,3,2.3145,2.6149,3,0.3904,1,0.43999
3,3,41,133,3,1.1368,3.7709,3,0.30188,1,0.39678
3,3,42,134,6,0.87186,6.9742,3,0.34845,1,0.43053
3,3,43,135,3,0.87453,5.4383,3,0.68958,1,0.37496
3,3,44,136,6,1.1883,0.30991,1,1.7753,0,0.5997
3,3,45,137,6,0.84456,8.9424,3,0.35634,1,0.43894
3,3,46,138,3,5.9022,2.4465,2,0.75104,0,1.133
3,3,47,139,6,0.78122,10.033,3,0.38581,1,0.42236
3,3,48,140,6,1.7065,5.4847,3,0.36004,1,0.36799
3,3,49,141,6,1.0283,7.3032,3,0.38203,1,0.51933
3,3,50,142,3,1.1699,4.1329,3,0.23726,1,0.28696
3,3,51,143,6,0.70375,7.0854,3,0.31773,1,0.30891
3,3,52,144,3,0.67995,4.6827,3,0.30983,1,0.29284
3,3,53,145,6,0.75182,6.8837,3,0.31648,1,0.46935
3,3,54,146,6,0.82428,6.7003,3,0.20559,1,0.45091
3,3,55,147,3,0.78091,5.1088,3,0.20218,1,0.27184
3,3,56,148,3,0.57688,4.991,3,0.25204,1,0.28427
3,3,57,149,3,0.90142,5.2206,3,0.30031,1,0.29561
3,3,58,150,6,0.7745,7.3009,3,1.505,1,0.67094
3,3,59,151,6,1.1506,6.7557,3,0.39775,1,0.62964
3,3,60,152,3,0.74234,4.7901,3,0.86403,1,0.85293
3,3,61,153,6,2.222,0.72001,1,1.5968,0,0.65452
3,3,62,154,3,0.76268,4.144,3,0.93241,1,0.71647
3,3,63,155,6,0.82025,7.7725,3,0.36941,1,0.90953
3,3,64,156,3,0.78828,4.723,3,0.401,1,0.58394
3,3,65,157,3,0.97579,5.0639,3,0.39514,1,0.6772
3,3,66,158,3,0.46453,4.6183,3,0.35024,1,0.44379
3,3,67,159,6,0.91067,7.3409,3,0.73695,1,1.0215
3,3,68,160,6,1.0292,7.6434,3,2.0126,1,0.63794
3,3,69,161,6,0.73783,7.0108,3,0.46101,1,0.47549
3,3,70,162,3,1.4793,4.8909,3,0.67825,1,0.55012
3,3,71,163,6,0.54101,7.0282,3,0.27303,1,0.50222
3,3,72,164,6,0.55991,5.2414,3,0.27689,1,0.32503
3,3,73,165,3,0.621,4.3104,3,0.30682,1,0.37643
3,3,74,166,3,0.69538,5.5059,3,0.28902,1,0.35058
3,3,75,167,6,0.90444,6.6984,3,0.34049,1,0.36364
3,3,76,168,6,0.56446,7.2929,3,0.32471,1,0.30355
3,3,77,169,3,0.62136,4.2868,3,0.21119,1,0.31407
3,3,78,170,6,0.83995,6.9883,3,0.77087,1,0.87405
3,3,79,171,3,0.71419,4.1214,3,0.49979,1,0.71987
3,3,80,172,3,0.55735,3.7519,3,0.33535,1,0.68518
3,3,81,173,6,0.66014,7.5653,3,0.51476,1,0.81715
3,3,82,174,3,0.51698,4.7582,3,0.37626,1,0.77937
3,3,83,175,3,0.72146,3.0856,3,0.32753,1,0.40059
3,3,84,176,6,0.77337,6.0255,3,0.44928,1,0.83114
3,3,85,177,3,0.65131,3.4578,3,0.46778,1,0.65763
3,3,86,178,3,0.66494,4.0804,3,0.7226,1,0.52414
3,3,87,179,6,0.53973,8.464,3,0.28797,1,0.93687
3,3,88,180,6,0.56597,7.2059,3,0.39715,1,0.56618
3,3,89,181,6,0.68758,7.3983,3,0.58861,1,1.4366
3,3,90,182,6,0.53631,7.4233,3,0.57191,1,0.86105
3,3,91,183,3,0.70631,4.6758,3,0.24128,1,0.47589
3,3,92,184,3,0.46954,4.3723,3,0.72576,1,1.0531
4,3,1,93,6,2.1001,5.5692,2,1.8235,0,1.0964
4,3,2,94,3,3.1204,3.4944,2,2.3595,0,0.99788
4,3,3,95,6,1.6468,6.2546,2,1.8099,1,1.9378
4,3,4,96,3,2.5228,2.9437,2,1.5102,0,0.57694
4,3,5,97,3,2.2631,3.1519,3,1.9515,0,0.96618
4,3,6,98,3,1.7816,2.9067,3,1.0303,0,0.50229
4,3,7,99,3,0.78264,3.0417,3,1.1582,0,0.53732
4,3,8,100,6,1.6285,5.3532,2,0.85,0,0.65523
4,3,9,101,3,1.6097,3.6124,2,1.7233,0,0.52226
4,3,10,102,6,1.1638,5.6552,2,1.8511,1,1.1788
4,3,11,103,6,1.5562,5.6978,3,1.3057,0,1.2355
4,3,12,104,6,1.2089,5.1012,3,2.2366,0,1.7045
4,3,13,105,6,1.867,5.3824,3,1.3955,0,1.0407
4,3,14,106,6,1.0722,6.3105,2,1.7872,1,0.95784
4,3,15,107,3,1.8689,2.6794,2,1.0263,0,2.6385
4,3,16,108,6,0.37869,5.9193,2,1.5607,1,0.86361
4,3,17,109,3,2.2369,3.2303,3,1.4485,0,0.51578
4,3,18,110,6,1.0486,5.9835,2,1.6944,1,0.87601
4,3,19,111,3,1.3428,2.8003,3,1.714,0,0.40436
4,3,20,112,6,3.832,5.713,3,2.8049,0,0.80445
4,3,21,113,3,2.9408,7.0075,3,0.72479,0,0.48798
4,3,22,114,6,1.3067,5.7486,3,1.1433,0,0.36521
4,3,23,115,6,1.6694,6.1061,2,1.6128,0,0.6402
4,3,24,116,3,1.7475,2.5922,3,0.98451,0,0.36911
4,3,25,117,3,1.3616,3.3284,3,0.70925,0,0.84064
4,3,26,118,6,2.4778,7.1753,2,1.0115,0,0.78044
4,3,27,119,6,1.9235,5.7609,2,2.3889,0,0.70682
4,3,28,120,3,1.697,2.9046,2,1.8036,0,0.93154
4,3,29,121,3,1.5544,2.6085,2,2.1594,0,0.61157
4,3,30,122,3,0.95301,2.2452,3,1.3516,0,0.43053
4,3,31,123,6,1.6086,6.6,2,3.3178,0,0.92852
4,3,32,124,6,1.1854,6.5197,3,2.1582,1,0.97235
4,3,33,125,6,0.95053,5.9945,3,1.2014,0,0.3686
4,3,34,126,6,1.0228,5.3987,3,1.6954,0,1.6773
4,3,35,127,6,0.71625,5.9674,3,1.7083,0,0.43624
4,3,36,128,6,0.75704,5.864,3,0.75423,0,0.34801
4,3,37,129,3,0.93287,3.6432,3,0.60628,1,1.5134
4,3,38,130,6,0.9469,6.6449,3,0.61264,0,0.17789
4,3,39,131,6,0.065238,6.2701,3,0.62153,0,0.1366
4,3,40,132,3,1.3419,3.2133,3,1.3124,0,0.16635
4,3,41,133,6,0.77074,5.5979,2,1.1937,0,0.42592
4,3,42,134,6,0.61432,5.6919,3,2.3367,0,2.0553
4,3,43,135,3,0.868,2.4197,2,1.1417,0,0.52564
4,3,44,136,6,1.2429,5.8517,3,1.5336,0,0.47957
4,3,45,137,6,0.86175,5.6933,3,1.3005,0,0.85573
4,3,46,138,6,1.4573,5.7479,3,1.4307,0,1.2139
4,3,47,139,6,2.6396,5.557,3,1.1527,0,0.45766
4,3,48,140,3,2.6705,6.1175,2,2.0069,0,0.93369
4,3,49,141,6,0.85762,6.288,2,1.3239,0,0.18665
4,3,50,142,6,0.84015,5.3007,3,0.73504,0,0.15737
4,3,51,143,3,1.3431,3.0509,2,1.8013,0,0.55386
4,3,52,144,3,0.49993,3.2686,3,1.7135,0,1.1664
4,3,53,145,3,0.63463,3.1461,3,1.7371,0,0.56953
4,3,54,146,6,0.64112,5.2632,3,1.5681,0,0.30566
4,3,55,147,3,2.851,2.867,3,0.60078,0,0.43188
4,3,56,148,6,1.0233,5.4131,3,1.1918,0,0.25058
4,3,57,149,3,0.91735,2.7058,3,0.73069,0,0.21614
4,3,58,150,3,0.6993,3.1802,3,0.5134,0,0.10234
4,3,59,151,6,0.77448,6.1632,2,1.5282,0,0.18989
4,3,60,152,3,0.85903,2.9406,3,0.96929,0,0.14474
4,3,61,153,3,0.5556,2.8879,3,1.0536,0,0.25853
4,3,62,154,6,0.96361,5.5572,3,1.0865,0,0.17025
4,3,63,155,6,1.1675,6.1059,3,2.813,1,0.58789
4,3,64,156,3,0.66753,2.1185,2,2.8669,0,0.51671
4,3,65,157,3,0.55415,2.4617,3,1.6497,0,0.77848
4,3,66,158,3,0.75403,2.8227,3,0.7311,0,0.34165
4,3,67,159,3,0.79158,3.3396,3,1.5163,0,0.8661
4,3,68,160,6,0.54355,6.3796,3,1.1401,0,0.29977
4,3,69,161,6,0.82147,5.2983,2,1.3071,0,0.39946
4,3,70,162,3,0.65531,5.9493,2,0.43197,0,0.9563
4,3,71,163,6,0.70435,6.648,3,1.6911,1,1.2477
4,3,72,164,3,0.8507,2.9438,3,0.76009,0,0.70364
4,3,73,165,3,1.229,2.7923,3,0.44599,0,0.19037
4,3,74,166,6,0.65359,5.7597,3,0.82568,0,0.42696
4,3,75,167,6,1.3903,5.1733,3,1.1002,0,0.43052
4,3,76,168,3,0.94732,3.3949,3,0.65982,0,0.4165
4,3,77,169,3,0.51601,2.7062,3,0.56914,0,0.18486
4,3,78,170,3,0.623,3.6262,3,0.51862,0,0.7218
4,3,79,171,6,0.66301,7.4441,3,1.3889,0,0.99769
4,3,80,172,3,0.48017,2.7454,3,0.58682,0,0.34773
4,3,81,173,3,0.60335,3.0098,3,0.60992,0,0.60365
4,3,82,174,6,1.0645,7.7701,2,2.0433,1,0.46192
4,3,83,175,3,0.7634,2.445,3,1.0114,0,0.8797
4,3,84,176,6,1.1048,6.0599,3,1.7126,0,0.42742
4,3,85,177,6,1.0864,5.9822,3,1.3684,0,0.86845
4,3,86,178,3,1.3488,2.4316,3,1.0497,0,0.79254
4,3,87,179,3,1.0219,2.3355,3,0.74103,0,0.41401
4,3,88,180,3,0.80221,2.7837,3,1.8876,0,4.1437
4,3,89,181,6,0.59666,5.8441,2,0.77741,0,0.37903
4,3,90,182,3,0.75043,3.5198,3,1.1885,1,0.30922
4,3,91,183,3,0.81178,2.7804,3,1.3879,0,0.3712
4,3,92,184,3,0.5881,2.736,3,1.4657,0,0.46508
5,3,1,93,6,0.52085,4.6361,2,1.1129,1,0.63887
5,3,2,94,3,0.63354,2.607,3,0.51996,0,0.59689
5,3,3,95,6,0.51836,6.333,1,1.3435,1,1.0262
5,3,4,96,6,0.32323,5.676,3,1.0385,0,0.58541
5,3,5,97,3,0.46893,3.0091,2,0.89646,1,0.91348
5,3,6,98,6,0.55092,3.732,3,0.7137,0,0.5279
5,3,7,99,6,0.4146,4.5186,2,0.70111,0,1.0449
5,3,8,100,3,0.43192,1.8047,3,0.60789,1,0.47651
5,3,9,101,6,0.38528,4.097,2,1.0229,0,1.2231
5,3,10,102,6,0.35593,6.2137,3,1.4277,0,0.4647
5,3,11,103,6,0.42839,3.3068,2,0.77977,0,1.0648
5,3,12,104,6,0.35121,3.8341,1,1.389,0,0.69695
5,3,13,105,6,0.54287,5.5028,2,0.83743,0,0.59734
5,3,14,106,6,0.81727,5.4946,3,0.50237,0,1.5602
5,3,15,107,3,0.54858,1.5552,2,0.55868,1,0.51656
5,3,16,108,3,0.76718,4.0062,2,0.64059,0,0.6513
5,3,17,109,6,1.1304,5.7561,2,0.43967,0,0.67537
5,3,18,110,3,0.80023,3.0816,2,0.58928,0,0.66175
5,3,19,111,3,0.65983,2.5148,2,0.75065,0,1.2938
5,3,20,112,3,0.47968,2.9705,2,1.9276,1,0.98941
5,3,21,113,3,0.48411,2.5449,2,0.57512,0,0.80141
5,3,22,114,3,0.78966,2.0005,3,0.4897,1,0.63792
5,3,23,115,6,0.38368,4.7959,2,0.76894,0,0.6835
5,3,24,116,6,0.40746,3.6016,2,2.0252,1,0.49777
5,3,25,117,3,1.336,3.0436,2,0.50944,0,0.57823
5,3,26,118,6,0.47437,3.4642,3,0.76173,0,0.48833
5,3,27,119,6,0.6671,5.5694,2,0.66084,0,0.78774
5,3,28,120,6,0.71135,4.768,3,1.2989,0,0.57895
5,3,29,121,3,0.71193,3.6809,3,0.63601,1,0.43472
5,3,30,122,6,0.33511,4.4709,2,0.76143,0,0.53912
5,3,31,123,6,0.41362,3.2705,3,1.252,0,0.53194
5,3,32,124,3,0.55721,2.4637,3,1.5014,0,0.68193
5,3,33,125,6,0.91845,4.5574,2,1.3642,0,0.5514
5,3,34,126,6,1.0793,6.5677,2,0.6689,1,1.3591
5,3,35,127,6,0.80149,5.5577,2,0.51271,1,0.41476
5,3,36,128,3,0.63966,3.6124,2,0.2485,1,0.51733
5,3,37,129,6,0.40126,4.6963,3,1.2195,0,0.59453
5,3,38,130,3,0.61685,2.3057,2,0.60719,0,0.87578
5,3,39,131,3,1.1432,2.8657,3,0.57698,0,0.53051
5,3,40,132,6,0.57569,4.1027,3,0.66123,0,0.65045
5,3,41,133,3,0.55389,2.1974,3,0.82527,1,1.4639
5,3,42,134,3,0.69462,2.1558,3,0.33248,1,0.21855
5,3,43,135,3,0.61767,2.5688,3,0.90338,0,0.84627
5,3,44,136,6,0.61355,4.2329,3,0.51171,1,0.96366
5,3,45,137,3,0.45991,2.8916,2,1.3584,0,0.7628
5,3,46,138,6,0.99516,6.4674,3,0.69392,0,0.078388
5,3,47,139,3,0.91809,2.4443,3,0.38758,1,0.3985
5,3,48,140,3,0.87434,1.6755,3,0.16189,1,0.51627
5,3,49,141,3,0.48829,2.2996,2,0.53782,0,0.46087
5,3,50,142,6,0.46739,3.4575,3,0.5298,1,0.57872
5,3,51,143,3,0.47152,1.5865,2,0.54504,0,0.68915
5,3,52,144,6,0.44348,4.0921,2,1.3173,0,1.1553
5,3,53,145,6,0.57637,4.0042,3,0.70123,1,0.41895
5,3,54,146,6,0.71629,3.8309,3,0.98586,0,0.73259
5,3,55,147,6,0.39398,4.6188,1,1.7136,1,0.50384
5,3,56,148,6,0.71201,5.6683,2,0.59684,1,0.3911
5,3,57,149,6,0.62356,4.9382,2,0.41545,0,0.51787
5,3,58,150,6,0.62615,6.1412,2,1.0514,1,0.41978
5,3,59,151,3,0.5918,3.9518,2,0.59882,0,0.44266
5,3,60,152,3,0.5798,3.0958,2,0.97359,1,1.2629
5,3,61,153,3,0.77759,3.2535,3,0.70402,1,0.74718
5,3,62,154,3,0.72182,3.0867,3,0.52647,1,0.76702
5,3,63,155,6,0.57218,0.13602,1,2.8862,0,0.97762
5,3,64,156,3,0.55664,3.1759,3,0.68355,1,0.53205
5,3,65,157,3,0.62826,2.9931,3,0.67131,0,1.8978
5,3,66,158,3,0.56695,3.1563,3,0.44286,0,0.81715
5,3,67,159,3,0.57754,2.7429,2,1.5356,1,0.092649
5,3,68,160,3,0.53715,2.9359,3,1.052,0,0.16998
5,3,69,161,3,0.6425,1.8654,2,0.68883,0,0.76274
5,3,70,162,6,0.49017,4.4759,3,1.2414,0,0.17549
5,3,71,163,3,0.59481,1.9929,2,0.62405,1,4.0018
5,3,72,164,3,0.49743,1.8161,3,0.51565,1,0.18024
5,3,73,165,3,0.41446,2.218,3,0.50315,0,0.26021
5,3,74,166,3,0.38254,2.3944,3,0.59964,0,0.13059
5,3,75,167,3,0.46671,3.0939,2,1.0231,1,0.4362
5,3,76,168,3,0.64968,2.8558,2,0.88096,1,0.090027
5,3,77,169,6,0.90439,4.6976,3,1.0466,0,0.25243
5,3,78,170,6,0.73164,3.655,2,0.96472,0,0.616
5,3,79,171,6,0.50868,3.5894,2,0.55477,0,1.0489
5,3,80,172,6,0.41736,4.7963,2,4.0567,1,0.81499
5,3,81,173,6,0.93829,4.4469,2,0.55961,0,1.0287
5,3,82,174,3,0.73591,2.0836,3,0.98895,1,0.27434
5,3,83,175,6,0.58366,5.1444,3,0.39155,1,0.47786
5,3,84,176,6,0.68895,4.0494,2,0.21223,0,0.29177
5,3,85,177,3,0.90299,2.3093,3,0.41122,1,0.6884
5,3,86,178,3,0.59393,2.6298,2,0.72577,0,2.539
5,3,87,179,3,0.51453,2.5928,2,0.70891,0,0.96421
5,3,88,180,3,0.89434,3.3411,3,0.57053,1,0.94706
5,3,89,181,6,0.84227,4.4904,3,0.48912,1,0.7629
5,3,90,182,6,0.58735,5.661,3,0.66455,0,0.56774
5,3,91,183,6,0.57912,6.4197,2,0.64613,0,1.2283
5,3,92,184,3,0.50191,3.2953,3,0.49837,1,0.9424
6,3,1,93,3,0.88558,3.0829,3,1.136,0,0.34469
6,3,2,94,3,0.48354,3.6069,2,1.1036,1,0.22179
6,3,3,95,3,0.36659,2.394,2,1.3492,0,0.22913
6,3,4,96,3,0.67971,2.9936,3,1.6224,0,0.32228
6,3,5,97,6,0.51831,5.6699,2,1.2998,1,0.55346
6,3,6,98,3,0.47088,2.9359,3,1.4271,0,0.70176
6,3,7,99,3,0.66596,4.0801,2,0.48531,1,0.29617
6,3,8,100,3,0.79791,3.245,3,0.67289,0,0.43751
6,3,9,101,3,0.63736,3.8986,2,1.0372,0,0.69648
6,3,10,102,3,0.74386,2.4547,3,1.1431,0,0.33854
6,3,11,103,3,0.68198,3.5045,3,0.74036,0,0.39997
6,3,12,104,3,0.50886,3.0657,3,0.37766,0,0.2268
6,3,13,105,6,0.46612,6.4061,2,0.46167,1,0.37711
6,3,14,106,3,0.48989,3.0007,2,1.4262,0,0.46263
6,3,15,107,6,0.87108,6.5474,1,1.4285,0,1.0398
6,3,16,108,6,0.48676,4.7604,3,0.88038,0,1.0392
6,3,17,109,3,0.82323,3.5621,2,1.4972,0,0.32503
6,3,18,110,6,1.0919,6.814,3,2.0894,0,0.88296
6,3,19,111,3,1.0141,3.3332,3,2.1255,0,1.2999
6,3,20,112,6,0.84724,7.4452,2,0.98845,1,0.71078
6,3,21,113,3,0.56967,3.3467,3,1.1246,0,0.81247
6,3,22,114,6,0.48999,5.2514,2,0.74881,1,0.46727
6,3,23,115,3,0.63565,3.7457,3,0.8717,0,0.42441
6,3,24,116,3,0.40644,3.239,3,2.8923,1,1.1963
6,3,25,117,3,0.45793,3.0283,3,1.1105,0,0.69153
6,3,26,118,6,0.51145,4.1805,2,2.2343,0,1.0904
6,3,27,119,3,0.51874,2.5711,2,0.68033,0,0.3028
6,3,28,120,6,0.63341,6.7315,2,1.6535,1,0.18219
6,3,29,121,6,0.48726,6.1364,3,1.1354,0,0.18104
6,3,30,122,6,1.2993,7.2701,3,1.1941,0,0.48899
6,3,31,123,6,0.98734,6.246,1,1.303,1,0.29437
6,3,32,124,3,0.80379,3.7606,3,1.119,0,1.4959
6,3,33,125,6,0.46248,4.8451,3,0.50563,0,0.62534
6,3,34,126,6,1.3852,5.6562,3,0.55169,0,0.83367
6,3,35,127,6,0.44196,6.8413,2,1.1744,1,1.0012
6,3,36,128,6,0.60352,6.4359,3,1.0708,0,0.29716
6,3,37,129,6,0.55792,7.1903,1,1.2477,1,1.2766
6,3,38,130,6,2.805,7.0674,1,2.0796,1,0.78911
6,3,39,131,6,0.40909,5.2281,3,1.0173,1,1.2692
6,3,40,132,6,0.15045,7.6709,3,1.1812,0,0.57823
6,3,41,133,3,7.686,5.6681,2,2.5091,0,0.84785
6,3,42,134,6,0.54255,6.4019,3,1.2969,0,0.52561
6,3,43,135,3,0.93556,4.0695,3,1.0493,1,0.6172
6,3,44,136,6,0.70672,6.5632,2,5.49,0,1.3517
6,3,45,137,6,3.5002,9.4147,2,1.9376,0,0.69415
6,3,46,138,3,0.66858,3.4209,3,0.60141,0,0.29565
6,3,47,139,6,0.89739,5.5814,3,2.457,1,1.3455
6,3,48,140,3,0.80267,5.2464,2,1.7179,1,1.1418
6,3,49,141,6,0.55217,5.3846,3,2.7227,0,1.0807
6,3,50,142,3,0.68356,3.8312,2,1.1867,1,0.47038
6,3,51,143,3,0.34628,4.5572,1,2.1031,1,0.42989
6,3,52,144,6,0.58711,5.7736,3,0.76337,0,0.90391
6,3,53,145,3,0.69823,3.3171,3,1.048,0,0.81526
6,3,54,146,6,0.47048,6.0107,3,1.089,0,1.4732
6,3,55,147,6,0.51377,13.171,1,1.544,1,0.21421
6,3,56,148,6,0.7857,4.171,3,0.8751,0,1.8161
6,3,57,149,6,1.5481,6.844,3,0.45222,0,0.1977
6,3,58,150,6,0.2693,5.4601,3,0.5769,0,0.21709
6,3,59,151,6,0.49735,6.0053,3,1.7619,0,0.12713
6,3,60,152,6,1.6817,10.606,2,0.76121,1,1.6796
6,3,61,153,3,0.61828,3.1464,2,1.2742,0,0.43706
6,3,62,154,6,0.40757,7.2275,3,4.9889,0,1.4535
6,3,63,155,6,0.50482,6.9491,3,0.3407,0,1.3146
6,3,64,156,6,0.60326,6.4487,2,1.9534,1,0.79391
6,3,65,157,3,0.84844,2.7918,3,1.2823,0,0.7785
6,3,66,158,3,0.77082,2.9728,3,1.7175,0,1.454
6,3,67,159,3,0.70065,4.0188,1,1.8611,0,0.602
6,3,68,160,3,0.8633,5.8824,1,3.0938,1,0.52205
6,3,69,161,3,0.34496,3.6441,3,0.4699,0,0.39889
6,3,70,162,6,0.51254,5.9438,3,0.40171,1,0.22052
6,3,71,163,6,0.3503,4.7462,3,0.75595,0,0.27514
6,3,72,164,6,1.2698,7.5457,2,2.0147,0,0.39212
6,3,73,165,3,3.8766,7.0433,3,1.0385,0,0.78672
6,3,74,166,3,2.1856,2.4031,2,1.2049,0,0.64656
6,3,75,167,3,0.81052,3.8023,2,0.70027,0,1.7819
6,3,76,168,6,0.69499,4.4179,2,0.36304,1,0.92835
6,3,77,169,6,0.5163,0.21939,1,2.285,0,1.8291
6,3,78,170,3,1.0353,3.4323,3,1.4015,0,1.206
6,3,79,171,3,0.70721,3.3774,2,1.4711,0,1.2573
6,3,80,172,3,0.75567,3.0252,2,1.5196,0,0.55647
6,3,81,173,3,0.6776,3.9053,2,1.2142,1,1.1017
6,3,82,174,6,0.41722,7.3694,3,0.29407,1,2.0008
6,3,83,175,3,0.43284,3.495,2,0.44703,0,1.2154
6,3,84,176,6,0.44846,5.3559,2,0.37689,0,0.51437
6,3,85,177,3,1.0269,3.3897,2,4.1056,0,0.35109
6,3,86,178,3,1.0492,4.2658,3,1.9371,1,0.98148
6,3,87,179,3,0.92106,3.123,2,1.0172,0,0.74375
6,3,88,180,6,0.057066,14.466,1,2.988,1,0.54212
6,3,89,181,6,0.58307,5.9568,3,0.65145,1,0.98223
6,3,90,182,3,0.59083,6.5656,1,1.3292,1,0.62848
6,3,91,183,3,0.63024,3.7565,3,0.60433,1,0.27389
6,3,92,184,6,0.79011,5.4387,3,0.31252,1,0.26664
7,3,1,93,3,1.1834,2.5675,3,2.0506,0,0.80295
7,3,2,94,6,0.69004,4.9124,3,1.6194,1,0.64245
7,3,3,95,3,0.77,1.8718,3,1.271,0,0.49565
7,3,4,96,3,0.54295,2.2273,3,0.90113,0,0.55662
7,3,5,97,3,0.40036,3.5449,3,1.2469,0,1.2633
7,3,6,98,3,0.40377,2.9614,3,0.73548,0,1.1584
7,3,7,99,3,0.33072,2.9796,3,1.0376,1,0.87252
7,3,8,100,6,0.60032,6.1824,3,1.4809,0,1.0007
7,3,9,101,6,0.46303,4.6455,3,0.94354,0,0.51545
7,3,10,102,6,0.5742,5.9646,2,1.442,1,0.83752
7,3,11,103,3,0.53679,2.7852,3,0.95216,0,1.0955
7,3,12,104,3,0.40504,3.3009,3,1.1235,1,0.69919
7,3,13,105,6,0.40769,6.6407,3,0.87488,1,0.65119
7,3,14,106,6,0.3468,6.7296,3,1.1257,0,0.42673
7,3,15,107,6,0.55337,6.2346,3,0.90744,1,1.0765
7,3,16,108,3,0.63195,2.8176,3,1.2136,0,0.48803
7,3,17,109,6,0.93483,5.5327,3,0.83287,1,0.75411
7,3,18,110,3,0.80055,2.6198,3,1.2027,0,0.51999
7,3,19,111,3,0.53766,3.0737,2,1.3189,0,1.0689
7,3,20,112,3,0.42142,3.3248,3,0.51885,0,0.6963
7,3,21,113,3,0.36312,2.7703,3,0.86703,1,1.0937
7,3,22,114,6,0.31111,7.4066,2,1.6212,1,0.64547
7,3,23,115,3,0.4421,3.1027,3,1.2151,1,0.77774
7,3,24,116,3,0.40928,3.5284,3,1.072,1,0.63542
7,3,25,117,6,0.31504,5.3934,3,1.528,1,0.78777
7,3,26,118,6,0.29025,4.2279,3,1.0945,1,0.7652
7,3,27,119,6,0.41428,6.7546,3,0.7851,1,0.74523
7,3,28,120,6,0.38501,4.9214,2,0.67376,0,1.1382
7,3,29,121,6,0.3652,5.0811,3,0.92059,1,0.72115
7,3,30,122,6,0.4237,6.9768,2,0.82653,1,0.87898
7,3,31,123,3,1.7515,3.3419,3,1.1582,0,0.49964
7,3,32,124,6,0.32186,6.5509,3,1.1063,0,0.78671
7,3,33,125,6,0.30302,6.0856,2,1.6211,0,0.89614
7,3,34,126,6,0.32281,7.3519,3,0.9801,1,2.0645
7,3,35,127,6,0.31936,5.4481,3,1.0315,1,0.75394
7,3,36,128,3,0.29624,2.8339,3,1.1868,0,0.85816
7,3,37,129,3,1.0148,2.8329,3,3.9996,0,4.8622
7,3,38,130,3,1.0089,2.8768,3,1.5096,0,0.58818
7,3,39,131,3,0.59701,3.983,3,1.525,0,1.7246
7,3,40,132,3,0.39252,2.5667,3,0.95115,0,0.81831
7,3,41,133,6,0.26858,4.6975,3,1.6955,0,5.9779
7,3,42,134,6,2.2186,7.8577,3,1.1477,1,0.68921
7,3,43,135,3,0.59499,2.5061,3,1.0438,0,0.65252
7,3,44,136,3,0.8452,2.2177,3,1.6897,0,0.67206
7,3,45,137,6,0.26758,6.3961,3,1.2765,0,2.0266
7,3,46,138,6,0.51449,3.9304,3,1.2101,0,2.8515
7,3,47,139,6,0.77713,4.1789,2,0.98363,0,2.393
7,3,48,140,3,0.52049,2.1981,2,1.0625,0,0.73904
7,3,49,141,6,0.31824,4.1959,3,1.2341,1,0.60506
7,3,50,142,3,0.82096,3.247,3,1.7,1,1.3277
7,3,51,143,6,0.70916,5.3276,3,1.1653,0,1.0035
7,3,52,144,3,0.34515,2.4816,3,1.211,0,1.6788
7,3,53,145,6,0.29977,5.6823,2,1.406,1,1.0984
7,3,54,146,6,1.0369,6.5091,3,1.4476,1,1.001
7,3,55,147,3,1.0035,3.5594,3,0.944,1,1.6425
7,3,56,148,6,0.50895,5.0771,3,1.0672,0,0.50525
7,3,57,149,6,0.33988,4.2388,2,0.75196,0,0.60798
7,3,58,150,6,0.27561,5.2045,3,1.3259,1,1.1891
7,3,59,151,6,0.25097,6.9952,3,1.2869,1,0.88345
7,3,60,152,3,0.44493,2.8445,3,1.3361,0,1.744
7,3,61,153,6,0.3098,7.0425,3,1.5126,1,0.62918
7,3,62,154,3,0.34513,3.7948,3,0.94618,0,0.93871
7,3,63,155,3,0.32183,3.4386,3,1.4025,0,0.99392
7,3,64,156,6,0.34884,6.4566,2,0.8736,1,0.70105
7,3,65,157,6,0.27938,6.4703,2,1.6221,0,0.69523
7,3,66,158,6,0.33129,7.2294,3,1.2004,1,1.5922
7,3,67,159,3,0.5412,3.2646,3,1.038,0,1.1849
7,3,68,160,3,0.33544,3.9346,3,0.97676,1,0.82903
7,3,69,161,6,0.8417,7.5011,2,0.67961,1,0.62696
7,3,70,162,3,37.294,13.021,1,4.5952,1,1.343
7,3,71,163,6,0.50023,4.5079,2,1.4408,1,1.6479
7,3,72,164,3,1.4163,3.7578,3,1.2419,1,0.6755
7,3,73,165,6,0.7691,7.1206,3,1.3075,1,1.3999
7,3,74,166,3,0.39679,1.632,2,1.2901,0,0.58687
7,3,75,167,3,2.6988,4.3404,3,1.2528,1,1.2574
7,3,76,168,6,0.68114,6.4049,3,0.79705,0,1.7782
7,3,77,169,3,1.7788,3.8526,2,0.77456,0,0.75056
7,3,78,170,3,0.85867,3.8268,3,0.83273,1,0.8676
7,3,79,171,3,0.84836,3.9288,2,0.64614,0,2.2032
7,3,80,172,3,0.63292,3.4572,3,0.86687,0,0.90626
7,3,81,173,3,0.30295,3.6721,3,1.1038,0,0.94534
7,3,82,174,6,0.31667,5.9709,3,0.46068,1,2.2007
7,3,83,175,6,0.2487,5.3313,2,1.3957,1,0.86571
7,3,84,176,6,0.30929,5.4784,2,1.155,1,0.59717
7,3,85,177,6,0.28035,4.7928,3,0.86573,0,1.1049
7,3,86,178,6,0.30236,6.4592,3,1.1109,1,2.1292
7,3,87,179,3,0.74571,3.8553,3,0.7649,0,0.77864
7,3,88,180,6,0.3373,3.824,2,1.1799,1,0.75166
7,3,89,181,3,0.31149,2.7943,3,0.92258,0,0.82425
7,3,90,182,3,2.3931,3.9607,3,1.0944,1,1.2542
7,3,91,183,3,0.79215,2.9522,3,1.4392,0,2.0472
7,3,92,184,3,0.43414,3.3461,3,0.96043,0,0.94075
8,3,1,93,6,0.85302,6.4215,3,1.1105,0,0.49048
8,3,2,94,6,0.70369,5.4215,3,1.0393,0,1.7241
8,3,3,95,6,0.81339,5.3955,3,1.0669,0,0.5428
8,3,4,96,6,1.5664,5.8578,3,1.798,0,1.226
8,3,5,97,6,0.96896,5.9817,3,1.0059,0,0.27338
8,3,6,98,3,2.5889,2.7182,3,1.2141,1,2.1397
8,3,7,99,6,0.60975,5.5528,2,1.049,0,0.6288
8,3,8,100,3,0.69813,2.9798,3,0.98689,0,0.77078
8,3,9,101,3,0.85749,2.8508,3,0.90008,0,0.40554
8,3,10,102,3,0.8328,3.0054,3,0.90469,1,0.73478
8,3,11,103,3,1.1999,2.9175,3,0.75053,0,0.36856
8,3,12,104,3,0.74637,3.1938,3,1.2722,0,0.32298
8,3,13,105,6,1.1313,6.2198,2,1.0475,1,0.65218
8,3,14,106,6,1.8944,6.1894,3,0.89961,0,0.66866
8,3,15,107,3,0.63103,2.9166,3,0.98657,0,0.34555
8,3,16,108,3,0.60378,3.1718,3,1.0045,0,0.86029
8,3,17,109,3,1.0251,3.2146,3,1.0629,0,0.46446
8,3,18,110,3,0.64105,3.2143,2,0.92593,1,0.77633
8,3,19,111,3,1.5792,3.478,2,1.6351,0,0.60478
8,3,20,112,6,2.6233,5.8833,2,1.3438,0,0.48983
8,3,21,113,6,0.60183,5.8592,3,1.1997,0,0.46759
8,3,22,114,3,2.038,3.6446,1,0.69553,1,0.61475
8,3,23,115,3,0.81829,3.2205,3,1.0522,1,0.53213
8,3,24,116,3,1.3959,2.9176,2,2.0995,0,0.58917
8,3,25,117,6,0.4728,5.4374,2,1.376,1,1.4626
8,3,26,118,6,1.327,5.3524,2,1.5865,0,0.46979
8,3,27,119,3,1.1823,2.8578,2,1.3204,0,0.31987
8,3,28,120,6,1.2113,6.7289,2,1.1255,1,0.85177
8,3,29,121,6,0.82841,6.1431,3,1.05,1,0.51707
8,3,30,122,6,2.5908,6.0322,3,1.2686,1,1.1434
8,3,31,123,3,1.2943,3.2164,3,1.1904,0,0.39836
8,3,32,124,6,0.72533,5.5147,2,1.5437,1,1.6632
8,3,33,125,6,3.9124,6.0453,3,1.078,1,0.52927
8,3,34,126,6,0.89618,6.1811,3,1.0301,1,0.72638
8,3,35,127,3,2.7004,3.9667,3,0.83819,0,0.33613
8,3,36,128,3,1.4739,3.1115,3,1.2731,1,0.69871
8,3,37,129,6,1.0481,5.7703,3,1.1246,0,0.85069
8,3,38,130,6,3.8844,5.2273,3,0.95366,0,0.32084
8,3,39,131,6,1.4231,6.4733,3,1.0487,1,1.4293
8,3,40,132,6,1.9013,5.472,3,1.0007,0,0.31839
8,3,41,133,3,0.72584,2.7766,3,0.98522,0,0.28247
8,3,42,134,6,1.1724,6.4741,3,1.0999,1,0.52999
8,3,43,135,6,1.2502,6.6416,2,1.9388,1,0.53346
8,3,44,136,3,1.3235,3.0361,2,1.2396,0,0.38605
8,3,45,137,3,3.2706,3.6437,2,1.3207,1,0.65819
8,3,46,138,6,2.0018,5.7534,3,1.8365,1,1.6814
8,3,47,139,3,1.2085,3.4385,3,1.2904,1,0.51135
8,3,48,140,6,1.1284,5.8789,3,0.94064,0,0.72577
8,3,49,141,3,1.5891,3.5835,2,1.0644,1,0.45253
8,3,50,142,6,2.1985,5.0674,2,1.2102,0,0.41419
8,3,51,143,6,1.1419,5.7762,3,1.0262,1,0.46389
8,3,52,144,6,0.65794,6.5396,3,1.4116,0,0.32704
8,3,53,145,3,1.7285,2.8777,3,0.97266,0,0.5119
8,3,54,146,3,1.3483,3.2576,3,1.0686,1,0.33183
8,3,55,147,6,1.0027,6.4076,2,1.276,1,0.50135
8,3,56,148,6,1.8413,5.335,2,1.2738,1,0.62396
8,3,57,149,3,2.6318,3.4522,3,1.088,0,0.34828
8,3,58,150,3,0.88173,3.1906,2,1.1823,1,0.45315
8,3,59,151,6,2.054,5.8687,3,1.0098,1,0.33864
8,3,60,152,3,0.63585,3.4221,3,0.99114,0,0.62579
8,3,61,153,6,1.0354,6.0703,3,1.223,0,0.76048
8,3,62,154,3,1.9329,3.3197,3,1.301,0,0.29362
8,3,63,155,6,3.1775,8.0478,2,1.3155,1,0.60278
8,3,64,156,6,0.99862,6.0086,3,1.1104,0,0.34104
8,3,65,157,6,1.1751,5.6139,3,1.1054,1,0.64792
8,3,66,158,6,1.141,5.1629,2,1.0191,0,0.94462
8,3,67,159,6,2.908,5.2826,3,1.1084,0,0.30133
8,3,68,160,3,0.90801,2.651,2,1.1885,0,0.49755
8,3,69,161,6,0.7755,6.4903,2,1.0383,0,0.76025
8,3,70,162,6,2.5653,5.8278,3,1.4274,0,0.38868
8,3,71,163,6,1.2426,4.3509,2,1.3131,0,0.58825
8,3,72,164,3,1.5027,3.0055,2,1.3804,0,0.68869
8,3,73,165,3,1.9222,3.4205,3,1.9898,1,2.896
8,3,74,166,3,1.7169,3.496,3,1.0856,1,0.54423
8,3,75,167,6,1.2892,5.3233,3,1.4248,0,0.62345
8,3,76,168,3,1.2362,3.0824,3,0.91474,0,0.4539
8,3,77,169,3,0.98292,3.1674,3,1.0754,1,0.45064
8,3,78,170,3,1.0021,3.0938,3,0.96013,1,0.72856
8,3,79,171,6,0.65385,7.1849,1,1.2049,1,0.9972
8,3,80,172,6,1.0604,5.8266,2,0.92638,1,0.57812
8,3,81,173,3,0.83459,2.8946,3,1.0362,0,0.59533
8,3,82,174,3,3.1872,3.1807,2,0.93817,0,1.0977
8,3,83,175,3,0.63827,3.2494,2,1.15,1,0.64394
8,3,84,176,3,1.8079,3.1748,2,1.2439,0,0.36379
8,3,85,177,3,1.9455,3.1773,3,1.0347,0,0.49354
8,3,86,178,6,1.0055,7.0485,1,0.72713,0,0.46683
8,3,87,179,3,3.5716,3.5688,2,0.89981,0,0.35551
8,3,88,180,3,0.66289,3.4575,2,0.88037,1,0.62716
8,3,89,181,6,2.3505,6.0197,2,1.0468,1,0.73921
8,3,90,182,3,0.99238,2.8144,3,1.175,0,0.30232
8,3,91,183,3,0.76681,3.269,3,1.5762,1,0.86206
8,3,92,184,3,2.1369,3.2434,2,1.5462,1,0.99193
9,3,1,93,6,1.4759,5.825,1,1.9622,1,0.66451
9,3,2,94,3,1.2802,3.5301,1,1.7126,0,0.83849
9,3,3,95,3,1.356,3.2228,2,1.2424,0,1.5137
9,3,4,96,3,0.98678,3.1205,3,0.70321,1,0.66016
9,3,5,97,6,2.6549,6.6547,2,1.1479,0,0.89022
9,3,6,98,6,1.8144,6.7668,3,0.94227,1,0.7646
9,3,7,99,6,1.4273,6.4269,1,1.337,0,0.9452
9,3,8,100,3,1.831,3.4049,2,1.5908,1,2.0854
9,3,9,101,3,2.2661,2.7548,2,1.305,0,0.52212
9,3,10,102,6,0.51842,5.8458,1,0.94041,1,0.94977
9,3,11,103,6,1.4907,5.9612,1,1.1023,1,0.5825
9,3,12,104,6,1.5818,5.3568,1,1.2607,1,1.0286
9,3,13,105,6,1.229,6.1039,2,0.73623,1,0.63389
9,3,14,106,6,1.5258,6.0877,1,1.111,1,0.70481
9,3,15,107,3,2.1439,3.3631,2,1.8232,0,1.9599
9,3,16,108,6,3.4795,6.1369,3,1.2349,1,0.84356
9,3,17,109,6,4.0845,6.1509,2,1.3076,1,0.73693
9,3,18,110,6,2.9704,6.4328,2,1.1928,1,0.42621
9,3,19,111,3,2.2059,3.5454,1,1.1219,1,0.48599
9,3,20,112,6,1.2491,6.4459,2,1.2632,1,1.1022
9,3,21,113,6,2.1049,6.3188,2,0.90825,1,0.47717
9,3,22,114,6,1.252,5.9074,3,1.7152,0,1.3768
9,3,23,115,6,0.79891,6.2302,2,1.203,1,0.60695
9,3,24,116,3,1.9202,3.2309,3,1.3382,0,0.53471
9,3,25,117,3,1.191,3.388,2,0.86552,0,0.59206
9,3,26,118,6,1.5991,6.3942,2,1.0254,0,0.45085
9,3,27,119,6,1.9531,5.9934,1,1.5628,1,1.2291
9,3,28,120,6,1.7727,6.5475,2,1.9147,0,1.7182
9,3,29,121,3,1.3348,2.7055,2,1.6308,0,0.58917
9,3,30,122,6,0.63478,5.4958,1,0.99173,1,0.80108
9,3,31,123,6,1.4406,6.0236,2,1.2389,0,0.52255
9,3,32,124,3,1.6114,3.2403,3,0.98034,0,0.52775
9,3,33,125,3,1.5222,3.5223,3,0.79087,0,0.66301
9,3,34,126,3,1.7313,3.2806,3,0.88741,1,0.82269
9,3,35,127,3,1.3585,3.4623,3,0.98562,1,0.73211
9,3,36,128,3,1.0957,3.4169,3,0.77874,1,0.55036
9,3,37,129,3,0.83227,2.8674,2,0.67496,0,0.60209
9,3,38,130,3,0.5216,3.6235,1,0.56656,0,1.1571
9,3,39,131,6,1.1662,6.1174,2,1.4826,0,0.82854
9,3,40,132,3,0.80078,2.845,2,1.0486,0,0.52826
9,3,41,133,6,1.6758,6.4624,2,1.614,1,0.66733
9,3,42,134,3,1.5272,3.5522,2,1.2376,1,0.63377
9,3,43,135,3,1.6089,3.751,1,2.1477,0,0.65305
9,3,44,136,6,1.0992,6.155,2,0.9605,1,0.46702
9,3,45,137,6,0.80344,6.1846,1,1.0082,0,0.80065
9,3,46,138,6,1.6268,6.7891,1,0.83445,1,1.0826
9,3,47,139,6,1.3204,5.7717,2,0.79978,1,1.1554
9,3,48,140,6,1.3969,5.743,1,0.61279,0,0.90257
9,3,49,141,3,1.2139,3.2939,2,1.7959,0,1.1535
9,3,50,142,3,0.87716,3.2896,3,0.81902,0,0.55811
9,3,51,143,3,0.70351,2.4979,3,0.69823,0,0.56743
9,3,52,144,6,1.0649,6.2952,2,1.2016,1,0.89335
9,3,53,145,3,1.1518,2.707,2,0.88192,0,0.77875
9,3,54,146,3,0.50833,5.1016,1,0.71153,1,0.65107
9,3,55,147,3,0.53523,2.6079,2,1.2839,0,0.69217
9,3,56,148,6,1.0283,5.8785,3,0.95407,0,0.55938
9,3,57,149,3,1.0316,2.4706,3,0.82962,0,0.56436
9,3,58,150,6,0.59895,4.1429,2,0.75561,0,0.63674
9,3,59,151,3,1.1666,2.8167,3,0.72561,0,0.62718
9,3,60,152,3,1.0075,3.5373,1,0.60176,1,0.67067
9,3,61,153,6,1.1211,4.4846,1,0.71366,0,3.14
9,3,62,154,6,1.1139,5.9939,2,0.73801,0,0.68599
9,3,63,155,3,1.0063,2.3,2,0.93829,0,0.87285
9,3,64,156,3,0.59415,3.1548,2,1.204,0,0.88341
9,3,65,157,3,1.0336,3.3428,3,0.7196,1,0.87233
9,3,66,158,6,0.65558,4.8615,1,0.7674,1,0.58167
9,3,67,159,3,1.0192,3.084,3,1.4985,0,1.5399
9,3,68,160,3,0.93446,3.131,3,0.82527,0,1.1895
9,3,69,161,6,2.4904,5.3334,2,0.8583,0,0.90175
9,3,70,162,3,0.55784,3.0884,2,0.56675,1,0.55684
9,3,71,163,3,1.3207,3.4332,2,8.4405,0,3.231
9,3,72,164,3,6.5158,3.1796,2,1.2494,1,0.55315
9,3,73,165,3,1.174,3.0378,2,1.7781,1,0.56533
9,3,74,166,3,0.90594,2.1866,3,0.99256,1,0.78898
9,3,75,167,3,0.31121,2.7187,2,0.80201,0,0.66945
9,3,76,168,3,0.41283,2.7575,2,0.54492,1,0.52587
9,3,77,169,3,0.86455,3.4082,2,0.53178,1,0.54199
9,3,78,170,6,1.0691,4.9696,1,0.86373,1,0.7145
9,3,79,171,6,0.6334,5.9818,1,0.63125,1,0.52834
9,3,80,172,6,1.3911,5.6251,3,0.62524,0,1.0148
9,3,81,173,6,2.3246,6.1224,3,1.1256,1,0.67546
9,3,82,174,6,1.5748,6.2867,3,1.1972,1,0.57715
9,3,83,175,6,1.5682,6.042,2,1.4039,0,1.0699
9,3,84,176,6,1.6452,5.5906,1,0.95257,0,0.87099
9,3,85,177,6,1.4382,5.7345,2,1.3961,0,1.4921
9,3,86,178,3,1.8654,2.4428,3,1.5485,0,1.2523
9,3,87,179,3,1.5348,3.4431,3,0.93273,1,0.59246
9,3,88,180,6,2.3809,6.4904,3,0.71271,1,1.0145
9,3,89,181,6,3.1896,6.2423,2,3.7983,1,4.5252
9,3,90,182,3,1.0474,2.844,2,1.1973,0,1.452
9,3,91,183,3,1.0681,3.3437,2,0.54611,1,0.84028
9,3,92,184,6,1.5192,6.2563,2,1.7759,1,1.1375
10,3,1,93,3,0.69264,4.0029,3,0.72439,0,0.36278
10,3,2,94,6,0.47261,5.6263,1,0.93816,0,0.50994
10,3,3,95,3,0.62473,4.2885,2,0.71448,0,0.42801
10,3,4,96,6,0.56261,5.1684,3,1.1737,0,1.3998
10,3,5,97,6,0.42656,6.6417,1,0.88953,1,0.66135
10,3,6,98,6,0.46459,4.8802,2,0.65695,0,0.88921
10,3,7,99,3,0.36892,3.6728,3,0.97739,0,1.2037
10,3,8,100,3,0.57391,3.7391,3,1.678,1,1.0143
10,3,9,101,6,0.6677,6.8202,2,0.83338,0,0.70537
10,3,10,102,3,0.63784,4.6485,3,1.3353,0,0.70502
10,3,11,103,6,0.50742,5.4386,2,1.376,0,0.60262
10,3,12,104,6,0.42394,5.9633,1,1.3415,0,1.0255
10,3,13,105,6,1.1954,5.5918,2,0.52574,1,0.90335
10,3,14,106,3,1.2077,3.6371,2,1.3384,0,0.41029
10,3,15,107,3,0.47685,2.3423,3,0.63464,0,1.3958
10,3,16,108,6,0.86364,5.77,1,0.99816,1,1.9037
10,3,17,109,6,0.57341,5.7143,2,0.96674,0,0.53137
10,3,18,110,3,1.0299,3.5939,3,1.4465,0,0.55466
10,3,19,111,3,0.64161,3.7407,3,1.2292,0,0.72946
10,3,20,112,3,0.61594,3.6939,1,1.1084,1,0.46277
10,3,21,113,3,0.63486,3.6329,2,1.4004,1,1.1172
10,3,22,114,3,0.52558,4.5146,2,1.1601,1,1.0769
10,3,23,115,6,0.53561,6.0463,1,0.70305,0,0.58375
10,3,24,116,6,0.91264,5.7821,1,0.94353,0,0.90304
10,3,25,117,6,0.55673,5.7385,2,1.5267,1,2.8633
10,3,26,118,6,0.53791,5.5369,1,1.0489,1,0.49198
10,3,27,119,3,0.71212,3.6309,2,0.62383,1,0.86444
10,3,28,120,3,0.53082,3.8176,3,1.3511,0,1.105
10,3,29,121,6,0.44993,5.5442,2,0.66498,1,0.492
10,3,30,122,3,1.0396,4.2487,3,0.96063,0,0.72846
10,3,31,123,3,0.82016,3.5725,3,1.404,0,0.54413
10,3,32,124,6,0.54645,4.8449,1,1.818,0,0.61536
10,3,33,125,6,0.506,5.6756,1,0.96373,1,0.70124
10,3,34,126,3,0.46112,5.3676,3,1.0736,1,0.6232
10,3,35,127,6,1.3919,7.8875,1,0.94338,0,0.53984
10,3,36,128,3,0.53173,4.3423,2,0.65455,1,0.46128
10,3,37,129,3,0.36134,4.2936,3,0.94285,0,0.47705
10,3,38,130,6,0.79899,4.2922,1,0.72834,1,0.73933
10,3,39,131,6,0.66249,5.9441,2,0.71443,0,0.41613
10,3,40,132,3,0.67264,3.4257,3,0.83093,0,0.52871
10,3,41,133,6,0.44458,6.2319,2,1.3544,1,0.65898
10,3,42,134,3,0.53334,3.9081,3,0.9294,1,0.60104
10,3,43,135,3,0.46796,3.9217,2,1.2138,0,1.0759
10,3,44,136,3,0.64659,3.9322,3,1.5124,0,1.3163
10,3,45,137,3,0.51724,3.845,3,1.4964,0,1.6671
10,3,46,138,6,0.60534,6.411,1,1.1009,0,0.54356
10,3,47,139,3,1.0572,4.0384,3,0.87514,1,0.57619
10,3,48,140,3,0.54136,4.3408,3,0.84009,0,0.37429
10,3,49,141,3,0.64562,3.2311,3,0.40102,0,1.5325
10,3,50,142,6,0.4067,6.1141,1,1.166,0,1.467
10,3,51,143,3,0.36911,4.1087,2,0.59264,1,0.56586
10,3,52,144,3,0.50345,4.1725,2,0.96476,0,0.47794
10,3,53,145,6,0.40723,6.3021,1,0.78431,0,0.50594
10,3,54,146,6,0.61006,5.9422,2,0.79994,0,0.4183
10,3,55,147,3,0.54788,2.8166,3,0.83807,0,0.69713
10,3,56,148,3,1.5726,4.6724,1,0.36207,1,1.9779
10,3,57,149,3,0.4507,4.6438,2,1.118,0,0.63067
10,3,58,150,6,1.0675,2.6438,1,5.4116,0,1.5414
10,3,59,151,6,0.88817,6.6853,2,1.0565,0,0.74966
10,3,60,152,3,1.9331,6.3072,3,0.92529,1,1.4388
10,3,61,153,6,1.7149,6.3186,3,1.7717,1,1.9329
10,3,62,154,6,0.54114,7.4025,1,1.3539,1,1.5707
10,3,63,155,3,0.55587,4.3987,2,0.76185,1,0.47562
10,3,64,156,6,1.4186,6.0688,1,1.733,1,0.85297
10,3,65,157,6,0.49121,4.3522,2,0.92519,0,0.44024
10,3,66,158,3,1.3996,4.6583,1,1.5653,0,1.1902
10,3,67,159,3,0.53354,3.3069,2,1.1045,1,0.5855
10,3,68,160,3,0.44827,5.0562,2,0.87446,1,0.52506
10,3,69,161,6,0.42991,4.5573,1,1.0278,0,0.6655
10,3,70,162,3,0.53764,4.5365,3,0.87596,0,0.56623
10,3,71,163,6,0.4423,4.6523,3,0.86028,1,0.65372
10,3,72,164,6,0.58396,4.4824,2,0.96005,1,0.58998
10,3,73,165,3,0.61636,3.4696,3,1.0005,0,0.41686
10,3,74,166,6,0.57237,5.3634,1,1.2924,0,2.7138
10,3,75,167,3,0.53638,3.8238,3,0.89062,0,0.45074
10,3,76,168,3,0.6468,3.0279,3,1.6621,0,1.8891
10,3,77,169,3,0.53931,3.2631,1,2.424,1,0.53325
10,3,78,170,6,0.56395,5.3168,2,0.58333,0,0.99483
10,3,79,171,6,0.4332,5.4833,1,0.73265,1,0.70594
10,3,80,172,3,1.2018,3.6308,3,1.313,0,1.1369
10,3,81,173,3,0.38107,4.6682,2,1.1118,0,0.80495
10,3,82,174,3,0.84573,4.4182,3,1.2894,0,0.73492
10,3,83,175,6,1.1312,4.9439,1,1.3802,1,0.46216
10,3,84,176,6,0.42975,7.6198,1,1.7306,1,0.56835
10,3,85,177,3,0.50513,3.7616,3,1.0096,0,0.40039
10,3,86,178,6,0.14984,7.0322,1,0.97714,0,0.5037
10,3,87,179,6,0.38244,5.6945,3,0.93969,1,0.51327
10,3,88,180,6,0.4667,4.7451,1,1.1684,0,0.56805
10,3,89,181,6,0.82343,5.1868,2,0.87562,0,0.50148
10,3,90,182,6,0.39099,6.2402,1,0.79937,1,0.63181
10,3,91,183,6,0.61475,5.4412,3,0.93833,1,1.5228
10,3,92,184,6,0.86543,5.9166,1,2.3705,0,1.0543
11,3,1,93,3,1.5708,3.1079,2,2.0454,0,0.60033
11,3,2,94,6,0.68711,4.7985,2,6.9089,0,6.3629
11,3,3,95,3,1.0149,3.5197,2,1.2266,1,0.97597
11,3,4,96,3,1.052,2.9824,2,0.88987,0,0.687
11,3,5,97,3,1.0828,2.9298,3,0.83708,1,1.2601
11,3,6,98,6,1.0414,5.9391,2,1.3881,1,1.0079
11,3,7,99,3,0.99456,2.3669,2,1.3266,0,0.87528
11,3,8,100,3,0.91452,2.6832,2,0.87527,0,0.48809
11,3,9,101,6,1.0173,5.9191,2,2.3465,1,1.5765
11,3,10,102,3,0.64578,3.0195,2,0.97842,1,0.57851
11,3,11,103,6,0.97728,5.966,2,1.8312,1,0.86396
11,3,12,104,3,0.97451,4.3753,2,1.7546,1,0.7941
11,3,13,105,6,0.92337,5.9117,2,1.8525,0,0.53017
11,3,14,106,6,0.8573,6.3019,2,0.93236,1,0.70401
11,3,15,107,6,1.0751,6.0003,3,1.7322,0,0.85189
11,3,16,108,3,0.94095,2.4633,2,1.4372,0,1.3472
11,3,17,109,6,0.57573,5.6023,2,0.86164,0,0.50019
11,3,18,110,3,0.62111,2.9603,2,3.3361,1,0.088572
11,3,19,111,3,0.9205,2.9104,2,1.7097,0,0.60052
11,3,20,112,3,0.95839,2.4763,3,1.66,0,2.0013
11,3,21,113,6,0.82139,6.0736,2,1.2129,1,1.0016
11,3,22,114,6,1.2295,6.4689,3,1.1575,1,1.0742
11,3,23,115,6,0.86148,7.8799,1,1.9976,1,1.1663
11,3,24,116,6,0.96355,5.619,2,1.898,0,0.9757
11,3,25,117,6,0.76951,6.3333,2,1.7188,1,1.068
11,3,26,118,3,0.73362,2.6942,3,2.0107,0,0.32562
11,3,27,119,3,0.66909,4.5339,1,1.5622,1,0.48961
11,3,28,120,3,0.48665,2.7465,2,1.5399,0,0.42118
11,3,29,121,3,1.0178,2.6446,3,2.2997,0,1.4502
11,3,30,122,3,0.79437,3.2561,3,1.4034,0,0.74586
11,3,31,123,6,2.304,5.6551,3,1.789,1,1.1586
11,3,32,124,3,0.75371,3.5845,2,0.95269,0,1.1213
11,3,33,125,6,1.0155,6.3167,2,1.5439,1,0.66417
11,3,34,126,3,0.61796,3.621,3,1.5515,1,1.9046
11,3,35,127,6,0.66457,5.8044,3,1.286,0,1.0194
11,3,36,128,3,0.75343,2.7717,3,1.0933,0,1.1012
11,3,37,129,3,0.65066,3.7198,2,3.5505,1,0.75251
11,3,38,130,6,0.4489,5.705,2,1.7879,1,1.558
11,3,39,131,3,0.83776,3.4358,2,1.7747,1,1.6609
11,3,40,132,3,0.62834,3.731,2,1.2868,1,0.27044
11,3,41,133,3,0.64246,3.4908,3,1.2423,1,0.51314
11,3,42,134,3,0.52859,3.1689,2,10.739,1,1.2021
11,3,43,135,3,0.52721,3.7922,2,1.5558,1,0.36062
11,3,44,136,3,0.45307,2.9363,2,1.3643,1,1.0141
11,3,45,137,3,0.62127,3.4735,3,1.2931,1,0.46433
11,3,46,138,6,0.39017,5.8274,3,1.1515,0,1.8062
11,3,47,139,3,0.93978,3.3369,2,6.1516,0,2.7333
11,3,48,140,6,1.0027,5.5696,3,0.95014,1,1.0053
11,3,49,141,6,0.67864,5.7425,3,1.3637,0,1.1392
11,3,50,142,3,0.83359,2.6197,2,1.6779,0,0.72606
11,3,51,143,6,0.5273,5.8169,2,2.7841,1,1.2378
11,3,52,144,6,3.7501,5.3759,3,2.3892,0,0.45761
11,3,53,145,6,1.5136,5.5683,3,2.0844,0,0.31595
11,3,54,146,3,0.94397,3.2779,3,1.8371,0,0.30658
11,3,55,147,6,1.0023,5.7715,2,1.7496,0,0.26591
11,3,56,148,3,0.9108,3.8429,2,1.9805,0,0.42879
11,3,57,149,6,0.709,5.7778,3,1.1016,0,0.43256
11,3,58,150,3,0.57885,2.2681,2,1.1654,0,0.32872
11,3,59,151,6,0.95067,5.1689,3,0.74843,0,0.6177
11,3,60,152,3,0.46114,3.106,2,2.1924,1,0.48486
11,3,61,153,6,1.2961,7.5557,1,2.7447,1,0.9495
11,3,62,154,6,0.54811,7.0293,2,1.6,1,0.24072
11,3,63,155,6,0.63412,6.37,3,1.4353,1,2.131
11,3,64,156,3,0.75952,0.24066,1,1.9988,0,0.18783
11,3,65,157,3,0.81526,4.6792,1,2.6311,1,0.22651
11,3,66,158,6,0.73422,6.444,2,7.4496,0,1.1649
11,3,67,159,3,0.48511,3.246,3,0.57428,1,0.75133
11,3,68,160,3,0.59423,3.2415,2,1.0203,0,0.2956
11,3,69,161,6,2.0064,5.6455,2,3.4298,0,1.9855
11,3,70,162,6,1.4531,6.4064,2,1.8257,0,1.161
11,3,71,163,3,1.0639,3.3324,3,0.96374,0,0.80215
11,3,72,164,3,0.72289,3.7372,3,3.1149,0,1.3765
11,3,73,165,6,0.60262,6.0081,3,0.96185,1,1.4673
11,3,74,166,6,1.3828,6.0823,3,4.5939,0,1.4302
11,3,75,167,3,0.47089,3.8615,1,1.3319,1,0.55395
11,3,76,168,6,0.44551,6.4811,3,1.2795,0,0.19178
11,3,77,169,6,1.3754,6.3763,2,1.1988,1,0.76586
11,3,78,170,6,1.0742,6.7633,3,1.1999,0,0.69351
11,3,79,171,6,0.8847,6.482,2,5.7421,1,0.67894
11,3,80,172,6,0.54212,6.9035,2,1.2073,1,0.662
11,3,81,173,3,1.8502,3.6068,3,1.8427,0,0.7611
11,3,82,174,6,1.1522,5.9955,2,9.7151,0,1.2865
11,3,83,175,6,0.40924,5.4167,3,1.1843,0,0.41725
11,3,84,176,6,0.68059,6.295,1,1.0007,1,1.0694
11,3,85,177,6,0.74976,6.744,2,0.37365,1,0.3397
11,3,86,178,6,0.72438,6.0391,3,0.93775,0,0.37207
11,3,87,179,6,0.91673,6.5683,3,1.744,0,0.51371
11,3,88,180,3,1.6767,3.6511,2,1.7121,1,1.0629
11,3,89,181,6,0.6535,5.3483,2,1.2312,1,1.2274
11,3,90,182,3,0.73547,3.9962,1,2.1218,1,0.21868
11,3,91,183,3,0.60658,2.8874,2,2.2795,0,0.12627
11,3,92,184,3,0.50648,3.3132,2,0.94855,0,0.20485
12,3,1,93,3,2.4158,3.1291,2,1.3618,0,1.0901
12,3,2,94,3,0.80117,3.8692,3,1.0246,1,0.57545
12,3,3,95,6,1.6866,5.969,2,1.1345,0,1.0936
12,3,4,96,3,1.2319,3.4195,3,1.0632,1,0.77618
12,3,5,97,6,1.3907,5.9863,2,1.0604,1,0.70313
12,3,6,98,3,1.3594,3.0133,3,1.213,0,0.68859
12,3,7,99,3,1.0861,3.5465,2,1.2227,1,0.69856
12,3,8,100,3,1.6334,3.2577,3,1.8447,0,0.88857
12,3,9,101,6,1.3524,5.8559,3,1.252,1,0.56817
12,3,10,102,6,1.6265,6.0391,2,4.0998,0,0.50045
12,3,11,103,6,1.5226,6.1345,3,1.2957,0,0.50412
12,3,12,104,6,1.8063,7.6095,2,2.6987,1,0.77782
12,3,13,105,6,1.3758,5.9251,2,1.3124,0,0.32516
12,3,14,106,3,1.1234,3.361,3,1.0462,0,1.039
12,3,15,107,3,1.0607,3.7024,1,1.5128,1,0.72952
12,3,16,108,3,1.0232,3.3747,2,2.0807,0,0.64154
12,3,17,109,6,1.4911,5.8119,1,4.0277,1,1.4691
12,3,18,110,3,0.79338,3.1654,3,1.1868,1,0.72005
12,3,19,111,3,0.95585,3.1489,2,1.3385,0,0.72218
12,3,20,112,3,1.2295,3.1431,3,1.384,1,0.39132
12,3,21,113,6,1.7158,5.9436,2,1.0639,1,0.67747
12,3,22,114,3,0.9634,3.2813,3,0.78757,0,1.5724
12,3,23,115,6,1.4271,5.9521,3,1.4588,0,1.075
12,3,24,116,6,1.2813,6.1313,2,1.0047,1,0.61004
12,3,25,117,6,1.2595,5.9894,2,1.6381,1,0.65762
12,3,26,118,3,1.5864,3.4442,3,1.122,0,2.0223
12,3,27,119,3,1.3807,3.2552,3,2.0043,0,1.168
12,3,28,120,3,1.0628,3.0684,3,1.3747,0,0.88767
12,3,29,121,6,1.1889,6.0101,2,1.4006,0,0.87937
12,3,30,122,6,3.1668,5.7778,3,3.2907,1,1.5438
12,3,31,123,3,1.3769,2.9645,2,1.475,0,0.31364
12,3,32,124,6,1.6377,5.8699,3,2.9862,0,2.165
12,3,33,125,6,1.3022,6.2693,2,1.5708,1,1.3455
12,3,34,126,6,0.77804,5.6293,1,1.8918,1,1.5611
12,3,35,127,3,0.84698,3.2318,3,1.0897,0,0.59789
12,3,36,128,3,0.89699,3.4574,3,1.2167,1,0.73035
12,3,37,129,3,13.222,4.32,1,1.1156,0,0.81687
12,3,38,130,6,1.1106,6.0779,2,1.3641,1,0.25139
12,3,39,131,6,0.14018,6.2034,2,1.4214,1,0.78391
12,3,40,132,6,1.4642,5.9181,2,2.196,1,0.77748
12,3,41,133,6,1.8275,5.9761,3,1.2506,0,0.74219
12,3,42,134,6,1.2644,6.2941,3,2.1621,1,0.8641
12,3,43,135,6,1.5992,6.395,2,1.6008,1,0.19151
12,3,44,136,6,0.7392,6.3238,2,2.664,1,0.5882
12,3,45,137,6,1.0347,6.3191,3,1.4465,1,1.4926
12,3,46,138,3,0.84128,3.3009,3,1.2376,0,0.62129
12,3,47,139,6,1.6814,6.1929,2,1.2618,0,0.60389
12,3,48,140,6,0.63955,12.313,1,3.8014,1,1.6024
12,3,49,141,6,1.4569,6.1736,3,0.98757,0,1.8476
12,3,50,142,3,1.5095,4.5249,1,1.3907,1,0.62434
12,3,51,143,3,0.9362,3.4093,3,1.0067,1,1.262
12,3,52,144,3,1.0647,3.0821,3,1.1974,1,0.76581
12,3,53,145,6,0.61805,5.9324,3,1.3937,0,0.62628
12,3,54,146,3,0.93534,2.5836,3,1.263,0,0.80027
12,3,55,147,3,0.64229,3.0774,2,1.4601,1,1.4019
12,3,56,148,6,1.3008,6.1803,3,1.3908,1,0.83628
12,3,57,149,3,0.8172,3.2186,3,1.375,1,1.3376
12,3,58,150,3,0.84385,3.229,2,1.4109,0,0.67656
12,3,59,151,3,0.83724,3.5479,3,1.9864,1,0.59349
12,3,60,152,3,1.1046,3.3722,2,1.441,1,0.48677
12,3,61,153,6,1.1716,6.2975,2,2.6284,0,0.63738
12,3,62,154,3,10.335,4.9386,1,1.1902,0,1.5988
12,3,63,155,3,1.6685,3.33,3,1.1491,1,0.60368
12,3,64,156,3,0.85417,3.3099,3,1.0208,0,0.47083
12,3,65,157,3,0.77099,3.5983,3,1.1115,0,0.65484
12,3,66,158,3,0.69046,3.2009,3,1.2375,1,0.58332
12,3,67,159,3,0.6943,3.4049,2,3.2536,1,0.67641
12,3,68,160,3,0.88823,4.1104,1,2.1198,1,0.62932
12,3,69,161,6,0.57918,6.6203,3,1.1828,1,0.49262
12,3,70,162,6,0.58202,6.2809,2,1.5035,1,1.0695
12,3,71,163,3,0.71094,3.292,3,1.1561,0,1.1121
12,3,72,164,6,1.4729,5.5723,2,1.6259,0,0.40148
12,3,73,165,3,0.53192,3.1935,3,1.0087,1,0.77598
12,3,74,166,6,2.9453,6.2118,2,1.8395,1,0.69599
12,3,75,167,6,1.3059,6.3107,3,0.96314,1,1.2515
12,3,76,168,6,1.1813,6.4324,3,2.3911,1,0.74772
12,3,77,169,6,1.4396,6.0225,2,1.5255,0,0.97549
12,3,78,170,6,1.4,6.2673,2,1.1194,1,0.65728
12,3,79,171,6,0.28295,6.858,1,4.325,1,1.1283
12,3,80,172,3,0.80905,3.3152,3,1.1508,0,0.51894
12,3,81,173,3,0.76346,3.3686,3,1.0374,1,0.68547
12,3,82,174,3,1.2571,3.1496,2,0.81576,0,0.3547
12,3,83,175,6,0.42682,6.1049,3,1.0117,1,0.51727
12,3,84,176,6,1.13,6.5054,3,1.3362,1,0.21918
12,3,85,177,6,0.55693,5.8514,3,2.1965,0,3.0023
12,3,86,178,3,0.71046,3.128,3,1.4868,0,1.0324
12,3,87,179,3,0.69598,3.6198,3,0.9373,1,0.49707
12,3,88,180,3,0.64542,3.3436,2,1.4221,1,0.70845
12,3,89,181,6,0.52897,5.9439,3,1.5637,0,1.1296
12,3,90,182,3,0.89624,3.0686,3,1.388,0,0.6972
12,3,91,183,6,0.96192,6.1925,2,1.9283,1,1.3013
12,3,92,184,6,1.3572,6.2371,2,1.322,1,0.32185
13,3,1,93,6,1.5016,5.0302,3,1.5072,0,0.96044
13,3,2,94,6,0.88034,6.8449,1,1.1866,0,0.65851
13,3,3,95,3,0.76187,2.58,3,1.1015,0,0.56943
13,3,4,96,6,0.50973,5.4041,3,1.2379,0,0.99583
13,3,5,97,6,0.68373,6.2198,2,1.9215,0,0.70717
13,3,6,98,3,0.64117,4.2893,3,1.6519,1,1.1801
13,3,7,99,6,1.0055,10.136,1,1.314,1,0.67731
13,3,8,100,6,0.78501,7.1333,2,1.4785,1,0.49082
13,3,9,101,3,1.0692,2.4712,3,1.0929,1,0.96307
13,3,10,102,6,0.84518,4.8298,3,1.3571,1,2.5872
13,3,11,103,6,1.1231,4.2731,3,1.4269,0,0.56401
13,3,12,104,3,0.83758,2.2485,2,1.5748,0,0.83733
13,3,13,105,3,0.93223,2.0161,3,0.98884,1,0.6369
13,3,14,106,6,0.73674,4.3222,2,1.0382,1,0.64753
13,3,15,107,3,0.83829,3.2731,2,0.93038,1,0.66385
13,3,16,108,3,0.71913,2.134,3,1.0155,0,0.56617
13,3,17,109,6,0.52357,3.677,2,1.9198,1,1.0429
13,3,18,110,6,0.74455,4.5924,2,2.1785,1,0.90143
13,3,19,111,6,0.48752,4.7615,3,2.0424,1,0.76244
13,3,20,112,6,0.66872,4.1084,3,1.0549,0,0.63387
13,3,21,113,6,0.85052,6.5318,3,1.1161,1,0.54213
13,3,22,114,6,0.67146,6.136,3,1.0597,1,0.5386
13,3,23,115,3,0.71181,3.0425,3,1.0713,1,0.59678
13,3,24,116,3,1.2974,2.3935,3,2.8619,1,1.0743
13,3,25,117,3,0.73357,2.9194,3,1.0519,0,0.88199
13,3,26,118,3,0.85129,3.4191,1,1.1385,1,1.2719
13,3,27,119,3,0.67555,2.014,2,1.2385,1,1.0717
13,3,28,120,3,0.4946,2.5304,3,0.73939,0,0.83752
13,3,29,121,6,0.52823,4.631,2,1.7209,0,0.94534
13,3,30,122,6,0.56754,5.9956,1,0.92799,1,0.55476
13,3,31,123,6,0.6296,5.3814,3,1.1945,1,0.68944
13,3,32,124,6,1.1247,5.5378,3,0.82435,1,1.1023
13,3,33,125,6,0.6497,6.7432,1,1.0519,1,0.60707
13,3,34,126,3,0.59962,4.3812,3,0.98509,1,1.0693
13,3,35,127,3,0.58019,4.5086,2,1.1656,1,0.79089
13,3,36,128,3,0.77394,1.6884,2,0.95804,0,1.2134
13,3,37,129,3,0.52849,2.1429,3,1.1237,1,0.87543
13,3,38,130,3,0.6318,2.3048,3,1.069,1,0.84455
13,3,39,131,6,0.47656,4.1926,3,1.0796,0,0.45093
13,3,40,132,3,0.58069,3.3336,2,0.92808,1,0.592
13,3,41,133,6,0.77844,5.0812,3,2.0819,0,1.5802
13,3,42,134,3,0.84705,6.0321,3,2.2931,0,1.5749
13,3,43,135,3,0.87597,5.1019,1,0.83803,1,1.0602
13,3,44,136,6,0.63442,4.6073,3,0.84012,0,0.4002
13,3,45,137,3,0.81711,1.8434,3,0.85066,1,0.8683
13,3,46,138,3,0.57615,1.5525,3,0.80817,1,1.8135
13,3,47,139,6,0.84657,2.9942,3,0.91035,0,0.7656
13,3,48,140,6,0.64172,3.7903,3,1.5155,0,0.60309
13,3,49,141,6,0.70137,4.7454,3,1.3563,0,0.63526
13,3,50,142,3,0.54948,2.9817,3,0.97672,0,0.8409
13,3,51,143,3,0.5074,2.8888,2,1.7799,0,0.79192
13,3,52,144,6,0.64522,4.0427,3,0.8439,1,0.85379
13,3,53,145,3,0.51874,2.4717,3,0.86757,0,0.6815
13,3,54,146,3,0.47431,9.8274,1,1.1681,1,0.68135
13,3,55,147,3,0.643,3.1529,3,1.2025,0,0.62071
13,3,56,148,3,0.50793,2.5034,3,0.80392,0,0.65969
13,3,57,149,6,0.69759,6.6456,3,0.58845,1,1.0241
13,3,58,150,3,0.54815,2.53,1,1.639,0,0.5836
13,3,59,151,3,0.54613,2.2823,3,1.1132,0,0.41374
13,3,60,152,6,0.42702,5.3915,2,1.0881,1,0.52229
13,3,61,153,6,0.51475,5.5676,3,1.1591,1,0.72664
13,3,62,154,6,0.43832,5.2496,3,0.83391,0,0.58089
13,3,63,155,6,0.40649,5.3632,3,1.0182,0,0.6194
13,3,64,156,3,0.52353,2.7012,3,1.6633,0,0.70469
13,3,65,157,6,0.46641,6.0946,3,1.4634,1,4.3392
13,3,66,158,3,0.5407,1.6269,3,0.7132,1,0.80242
13,3,67,159,6,0.45685,3.8012,3,0.83566,0,0.42063
13,3,68,160,3,0.66814,2.2946,3,0.69976,0,0.46888
13,3,69,161,6,0.91439,4.8083,3,1.6518,1,4.6304
13,3,70,162,3,0.68484,2.2569,3,1.2717,0,0.59655
13,3,71,163,3,0.37922,2.3708,2,0.91707,0,1.9691
13,3,72,164,6,0.45141,4.5471,3,0.75763,0,1.0013
13,3,73,165,3,0.79645,3.0693,3,0.75137,1,0.92044
13,3,74,166,3,0.68046,2.9823,3,0.71533,0,0.63074
13,3,75,167,3,0.91676,2.2679,3,0.79064,0,0.80056
13,3,76,168,6,0.9122,5.205,2,1.0389,1,0.82399
13,3,77,169,6,0.62674,5.1164,3,1.0091,0,0.56431
13,3,78,170,3,1.2522,2.3066,3,0.73281,0,0.8438
13,3,79,171,3,0.62179,2.5611,3,0.91167,0,0.43031
13,3,80,172,3,0.76753,3.3571,3,0.5424,0,0.32934
13,3,81,173,6,0.72809,4.2916,3,0.59106,1,0.48947
13,3,82,174,6,0.49832,4.0921,3,0.80564,0,0.34862
13,3,83,175,6,0.79007,4.0251,3,0.59222,1,0.48998
13,3,84,176,3,0.91082,1.7422,3,0.92412,0,0.9625
13,3,85,177,3,0.76153,3.5422,1,1.0201,1,3.5332
13,3,86,178,6,0.59053,4.8768,3,0.69081,0,0.88829
13,3,87,179,6,0.61729,8.0191,3,0.95371,1,0.94624
13,3,88,180,3,0.62862,1.8809,3,0.92602,0,0.41423
13,3,89,181,6,0.52789,6.1047,3,0.87395,1,0.61282
13,3,90,182,6,0.86697,6.2194,3,0.79648,0,0.44024
13,3,91,183,3,0.71823,2.3587,3,0.74726,1,1.0404
13,3,92,184,6,0.41394,6.2919,3,0.81371,0,0.69131
14,3,1,93,3,0.43156,2.2044,3,1.1446,0,0.46605
14,3,2,94,3,0.38531,3.0455,2,1.0495,1,0.55431
14,3,3,95,3,0.40093,3.1215,3,0.78992,1,1.5138
14,3,4,96,3,0.34022,3.2643,3,0.67489,0,0.46394
14,3,5,97,6,0.45313,6.5857,2,1.4823,1,1.365
14,3,6,98,3,0.48,4.2712,3,1.2502,0,0.89202
14,3,7,99,6,0.46579,5.6436,3,1.2272,0,1.4516
14,3,8,100,3,0.46392,3.1674,3,1.2237,0,2.0747
14,3,9,101,3,0.50508,3.0235,2,0.93137,1,0.7413
14,3,10,102,3,0.37493,4.215,2,0.81136,1,0.79303
14,3,11,103,3,0.44263,3.9286,3,0.78308,0,0.50627
14,3,12,104,3,0.34069,3.8271,3,0.68243,0,0.66718
14,3,13,105,6,0.43415,5.5838,3,0.88336,0,1.7562
14,3,14,106,3,0.43763,4.0236,3,0.86533,1,1.1175
14,3,15,107,6,0.42777,5.4062,2,1.2902,0,1.5238
14,3,16,108,6,0.45111,5.4583,3,1.0375,0,0.89675
14,3,17,109,3,0.57573,2.1763,3,0.72558,0,0.5145
14,3,18,110,6,0.54096,6.3642,2,0.87856,0,0.9394
14,3,19,111,6,0.44643,5.5448,2,1.7531,0,1.2184
14,3,20,112,6,0.51291,6.3196,3,0.83446,0,1.2814
14,3,21,113,6,0.41394,5.8044,2,1.8871,1,1.9935
14,3,22,114,6,0.46582,4.9439,2,0.82833,1,0.88906
14,3,23,115,3,0.48153,3.9052,3,1.2636,1,1.0024
14,3,24,116,6,0.44773,7.5308,3,0.93625,1,0.89632
14,3,25,117,3,0.51352,4.1074,2,1.1542,0,1.1839
14,3,26,118,6,0.51113,5.8814,3,1.1802,1,0.52584
14,3,27,119,6,0.54035,5.8255,3,0.8375,0,1.0842
14,3,28,120,3,0.48083,3.8661,3,0.78903,0,0.56055
14,3,29,121,3,0.50052,3.6442,3,0.72077,0,0.48488
14,3,30,122,6,0.36861,7.2721,3,1.1596,1,0.85073
14,3,31,123,6,0.4469,6.784,2,0.86703,1,0.54345
14,3,32,124,3,0.47848,4.7946,3,0.95482,1,0.62243
14,3,33,125,6,0.50197,7.1472,3,0.87594,1,0.50079
14,3,34,126,6,0.52477,7.5892,2,0.99547,1,1.9257
14,3,35,127,6,0.44243,6.5398,2,1.3014,0,1.2685
14,3,36,128,6,0.5629,7.6199,3,0.98013,0,2.6527
14,3,37,129,6,0.44251,6.7646,2,1.1166,1,0.49317
14,3,38,130,6,0.46687,5.9944,3,1.2642,0,0.86439
14,3,39,131,6,0.44859,6.3305,2,2.2656,1,0.33082
14,3,40,132,6,0.48015,6.346,2,1.7779,0,0.71407
14,3,41,133,6,0.79085,6.6015,3,1.2197,1,0.53245
14,3,42,134,6,0.66978,6.8973,3,1.4642,0,0.5758
14,3,43,135,6,0.48588,6.3842,3,1.645,1,0.91387
14,3,44,136,3,0.56205,2.5687,3,1.2776,0,0.62801
14,3,45,137,3,0.48649,3.8353,2,1.179,1,0.91656
14,3,46,138,3,0.44201,3.878,2,1.8203,1,1.307
14,3,47,139,6,0.41137,7.694,3,1.0256,1,0.71314
14,3,48,140,3,0.57529,3.2783,2,0.93465,1,0.53249
14,3,49,141,6,0.45365,6.9122,3,1.7623,0,1.4151
14,3,50,142,3,0.42652,3.353,2,0.86416,1,0.95387
14,3,51,143,3,0.45398,3.2853,3,1.0381,0,0.64784
14,3,52,144,6,0.73936,9.2008,2,1.0895,1,0.52358
14,3,53,145,3,0.47526,3.9901,3,0.81567,0,0.53004
14,3,54,146,3,0.43086,4.1665,2,0.93787,1,0.58472
14,3,55,147,6,0.52216,5.9257,2,0.9744,0,0.73781
14,3,56,148,6,0.43078,7.429,2,2.049,1,0.43763
14,3,57,149,6,0.63943,6.8503,3,1.0541,0,0.53459
14,3,58,150,6,0.49472,6.4797,3,1.0146,0,0.57944
14,3,59,151,6,0.55015,6.7321,2,1.3655,0,1.4413
14,3,60,152,3,0.55579,3.6876,3,0.9255,0,0.52714
14,3,61,153,6,0.46889,6.372,2,1.9115,0,1.1642
14,3,62,154,3,0.4589,3.7523,3,1.1506,0,0.65528
14,3,63,155,3,0.43187,3.0547,2,5.2299,0,1.5183
14,3,64,156,3,0.44476,5.2443,3,1.253,1,1.1077
14,3,65,157,3,0.50315,3.5989,2,1.5245,0,0.87483
14,3,66,158,3,0.4584,4.4664,3,1.2489,0,0.45307
14,3,67,159,6,0.48742,6.9233,3,0.99946,0,0.65349
14,3,68,160,3,0.48476,3.5834,2,3.8883,1,0.70214
14,3,69,161,6,0.53216,7.9549,2,1.557,1,0.62307
14,3,70,162,3,0.4312,4.4053,2,0.77569,0,0.48909
14,3,71,163,3,0.40446,4.0234,2,0.75332,1,0.77158
14,3,72,164,3,0.45984,3.355,3,0.84045,0,0.51251
14,3,73,165,3,0.39835,3.8169,3,0.96417,0,0.85273
14,3,74,166,6,0.57288,5.6386,3,0.86329,1,0.41473
14,3,75,167,3,0.48435,3.5196,3,1.2764,0,0.97576
14,3,76,168,6,0.49594,6.2692,2,1.1338,0,0.86871
14,3,77,169,3,0.46031,2.8165,2,0.82497,0,0.43879
14,3,78,170,6,0.48274,8.8689,2,0.77491,1,0.45188
14,3,79,171,6,0.3776,6.2566,2,0.8876,1,0.55951
14,3,80,172,6,0.58111,7.1794,3,0.88718,1,0.50896
14,3,81,173,3,0.51833,4.0715,3,1.1253,1,1.0384
14,3,82,174,3,0.42708,3.6167,2,1.9277,1,0.75068
14,3,83,175,3,0.58028,3.5571,2,1.0918,0,0.58955
14,3,84,176,3,0.53536,3.6464,3,1.8472,1,0.55436
14,3,85,177,3,0.39402,3.1802,3,1.5994,0,0.50318
14,3,86,178,6,0.50146,6.8087,2,1.4746,1,0.3754
14,3,87,179,6,0.49235,6.4648,3,1.1807,1,0.33992
14,3,88,180,6,0.5648,5.2687,3,1.185,0,0.59458
14,3,89,181,6,0.45469,5.7248,2,1.2613,0,0.72828
14,3,90,182,3,0.42504,4.0032,3,2.5753,1,1.0961
14,3,91,183,3,0.42647,4.58,2,2.3825,1,0.81708
14,3,92,184,3,0.42274,2.7885,3,0.84275,0,0.68964
15,3,1,93,6,0.99263,6.065,3,1.2932,1,0.76403
15,3,2,94,3,2.0294,3.1527,3,1.7267,0,0.61352
15,3,3,95,3,1.2807,3.0062,3,1.2923,0,0.5894
15,3,4,96,6,0.73878,5.9494,3,1.1318,0,0.69035
15,3,5,97,3,1.007,3.0881,3,1.2413,0,0.48812
15,3,6,98,3,0.55967,2.7426,2,3.6592,1,1.1185
15,3,7,99,6,1.0029,5.7339,3,1.3079,0,0.86339
15,3,8,100,6,0.58352,5.5933,3,0.77678,1,0.7293
15,3,9,101,6,0.52425,5.4528,3,1.023,0,1.0878
15,3,10,102,3,1.3077,2.7496,2,1.7246,0,0.49859
15,3,11,103,3,1.0453,2.8666,2,1.4621,0,0.66678
15,3,12,104,3,0.57058,2.4982,3,1.4615,0,0.57728
15,3,13,105,6,0.77268,5.4616,3,1.2283,0,0.7294
15,3,14,106,6,0.83694,5.7096,3,1.0256,1,0.47678
15,3,15,107,3,0.96106,3.291,3,1.0688,0,0.46995
15,3,16,108,3,1.2578,2.987,3,1.1902,0,0.51215
15,3,17,109,3,1.0541,3.1466,3,0.93792,0,0.47169
15,3,18,110,3,1.3403,2.9118,3,0.67358,0,0.48931
15,3,19,111,3,1.3361,2.6314,3,1.1779,0,0.50424
15,3,20,112,6,1.945,5.5395,2,1.0642,1,0.59077
15,3,21,113,6,0.8323,6.004,3,1.2115,0,1.466
15,3,22,114,6,0.67559,5.9032,3,1.0978,0,0.80373
15,3,23,115,6,0.75949,6.0271,3,1.2891,1,0.77283
15,3,24,116,6,0.94431,6.5669,2,1.0806,0,1.4648
15,3,25,117,6,1.1029,5.8206,3,0.56162,0,1.5894
15,3,26,118,3,1.2576,0.43692,1,3.9355,0,1.3405
15,3,27,119,3,0.61373,2.9702,3,1.4162,0,0.84048
15,3,28,120,6,0.91541,5.4786,3,0.85463,0,0.74689
15,3,29,121,6,1.0265,5.7279,3,0.66579,1,0.52967
15,3,30,122,6,0.88475,6.1445,3,0.87636,1,0.61436
15,3,31,123,6,0.66104,5.754,3,0.88728,1,0.52195
15,3,32,124,3,0.68531,2.5461,3,0.83877,1,1.1481
15,3,33,125,3,0.84542,2.9933,3,0.87094,0,0.82307
15,3,34,126,3,0.84389,3.1547,3,0.716,0,1.0295
15,3,35,127,6,0.70454,5.9368,3,1.0596,0,1.4266
15,3,36,128,3,0.9347,3.057,3,0.79411,1,0.46616
15,3,37,129,3,0.54618,3.1067,3,0.6307,1,0.40498
15,3,38,130,6,0.76344,5.4444,2,1.0157,1,0.54152
15,3,39,131,3,1.5714,3.1336,3,1.0233,0,0.48659
15,3,40,132,6,0.69874,5.4927,2,1.3258,1,0.90189
15,3,41,133,6,0.86263,5.7819,3,0.60523,0,0.62423
15,3,42,134,6,0.7085,6.0778,3,0.72596,0,0.57734
15,3,43,135,6,1.04,5.762,3,1.3037,0,0.58297
15,3,44,136,3,0.76224,2.9809,3,0.83831,0,0.43552
15,3,45,137,6,0.53203,5.8679,3,0.79611,0,1.2142
15,3,46,138,6,0.66638,5.9448,2,1.289,1,0.7602
15,3,47,139,3,1.0151,3.1703,3,0.82828,1,0.77488
15,3,48,140,3,0.64184,3.1778,3,0.7848,0,0.85783
15,3,49,141,3,0.60778,3.3259,3,0.63316,1,0.48141
15,3,50,142,3,0.72386,3.1877,3,0.7288,0,0.58842
15,3,51,143,3,0.75745,3.0757,3,0.95832,0,0.83878
15,3,52,144,6,0.85401,6.0102,2,0.6877,1,0.61053
15,3,53,145,6,0.62317,6.3629,3,0.85337,0,0.87031
15,3,54,146,3,0.80911,2.6272,3,0.84861,0,0.5662
15,3,55,147,3,0.55304,2.4724,3,0.78263,0,0.51713
15,3,56,148,3,0.44282,2.8906,3,0.44481,0,0.52638
15,3,57,149,6,0.77003,6.0596,3,0.86187,1,1.2512
15,3,58,150,6,0.61516,5.6174,3,0.92117,0,0.48556
15,3,59,151,6,0.81077,5.8668,3,0.89416,0,0.62955
15,3,60,152,6,0.62491,5.7154,2,0.8187,1,0.5827
15,3,61,153,6,0.54908,5.9069,3,0.66004,0,0.67841
15,3,62,154,3,1.2838,2.8303,3,0.81368,0,0.41496
15,3,63,155,3,0.79557,3.3927,3,0.6825,1,0.45569
15,3,64,156,3,0.85548,3.2868,3,0.70196,1,0.55736
15,3,65,157,6,1.3534,5.6835,3,1.0073,1,2.088
15,3,66,158,3,0.88049,3.0321,3,1.7986,0,1.5513
15,3,67,159,6,0.76024,5.1531,3,0.83872,1,0.44893
15,3,68,160,6,1.0423,5.8513,3,0.52078,0,0.93582
15,3,69,161,3,0.79472,2.7923,3,0.67157,1,0.51188
15,3,70,162,6,0.54168,5.3038,3,0.6756,1,0.61424
15,3,71,163,3,0.89412,2.7281,3,0.85065,0,0.48142
15,3,72,164,6,0.50524,5.6496,3,0.89519,0,0.72633
15,3,73,165,6,0.91718,6.7685,3,0.64364,1,1.0172
15,3,74,166,6,0.54868,5.6931,2,1.1263,0,0.55164
15,3,75,167,3,1.582,2.5939,2,0.81111,0,0.52938
15,3,76,168,6,0.64769,5.7036,3,0.4992,1,0.43126
15,3,77,169,6,1.0276,5.9034,2,0.88666,1,0.85969
15,3,78,170,6,0.57497,6.0403,3,0.75099,1,0.40757
15,3,79,171,3,0.60058,2.3685,3,0.69042,0,0.53832
15,3,80,172,6,0.6804,5.357,3,0.41151,1,0.35274
15,3,81,173,3,1.0165,2.83,3,0.91386,0,0.91446
15,3,82,174,3,0.70995,2.9644,3,0.63896,1,0.48839
15,3,83,175,3,0.79288,3.053,3,0.60227,1,0.49592
15,3,84,176,3,0.563,2.9574,3,0.54445,1,0.42631
15,3,85,177,6,0.61747,6.8829,3,0.41677,1,0.64494
15,3,86,178,3,0.97026,2.6716,3,1.7796,0,0.54208
15,3,87,179,3,0.54273,3.4274,3,0.38548,0,0.47196
15,3,88,180,6,0.77609,6.7777,3,0.26591,1,0.46902
15,3,89,181,3,0.65692,2.6383,3,0.61858,0,0.45802
15,3,90,182,3,0.61303,2.7324,3,1.0121,0,0.58685
15,3,91,183,3,0.63879,3.137,3,0.6896,0,1.3131
15,3,92,184,6,1.7426,5.2005,3,0.35917,1,0.39126
16,3,1,93,6,0.60672,6.5767,2,2.5111,0,1.1115
16,3,2,94,6,0.88943,6.5364,2,2.3967,1,0.48818
16,3,3,95,3,1.245,2.7273,2,2.2249,1,2.098
16,3,4,96,3,0.59339,3.5903,2,2.0931,0,3.5751
16,3,5,97,3,0.44094,2.7775,3,1.8475,0,0.45422
16,3,6,98,3,0.61831,2.9701,2,1.1401,1,0.21252
16,3,7,99,6,0.59369,6.6668,2,2.3431,1,0.32292
16,3,8,100,6,0.49094,6.4907,3,4.6254,0,1.1156
16,3,9,101,3,0.85087,3.4817,2,1.3372,0,0.29574
16,3,10,102,6,0.42575,6.7533,1,1.1721,1,0.72212
16,3,11,103,6,1.086,7.4582,2,1.6235,1,0.29788
16,3,12,104,6,1.0617,6.9413,1,1.3505,0,0.5674
16,3,13,105,6,0.46244,6.0317,2,1.2178,1,0.85589
16,3,14,106,6,0.40882,6.6775,1,1.7002,1,0.21538
16,3,15,107,6,0.41858,6.172,2,2.6251,0,2.1213
16,3,16,108,6,1.048,6.8065,2,1.2862,1,0.75732
16,3,17,109,3,0.7024,3.2835,2,1.0774,0,0.29059
16,3,18,110,3,0.87287,3.2108,3,1.4473,0,0.9142
16,3,19,111,3,0.94007,3.0867,3,0.54023,0,0.5267
16,3,20,112,6,0.86801,6.8565,3,0.69845,0,0.61735
16,3,21,113,3,1.1978,3.0066,1,1.206,1,1.0106
16,3,22,114,3,0.61278,3.5689,2,1.1376,0,0.48397
16,3,23,115,6,0.44713,6.1162,2,1.5057,1,0.34732
16,3,24,116,3,0.77306,3.363,2,1.7483,0,0.73896
16,3,25,117,3,0.42352,3.726,1,1.2689,0,0.40731
16,3,26,118,6,0.82025,6.1094,3,0.59896,0,0.59414
16,3,27,119,6,0.89783,7.1446,3,0.35228,1,1.3849
16,3,28,120,6,2.1032,4.5056,1,0.38799,0,0.67375
16,3,29,121,3,0.84268,3.8281,2,0.74575,0,0.72667
16,3,30,122,6,0.5637,7.1582,3,0.53586,0,0.67277
16,3,31,123,6,1.5897,4.8594,1,0.55317,1,1.5845
16,3,32,124,6,0.90526,6.3612,3,1.4008,0,0.99199
16,3,33,125,3,0.99546,2.681,2,1.2393,0,0.72257
16,3,34,126,6,0.91462,6.2328,2,1.1306,0,0.77805
16,3,35,127,6,0.52804,6.6182,3,0.76977,0,0.6342
16,3,36,128,3,0.58026,2.9704,1,0.98982,0,0.25031
16,3,37,129,6,0.62573,6.4155,2,1.0301,1,0.41358
16,3,38,130,3,1.8883,3.2577,2,1.2818,0,0.25262
16,3,39,131,3,0.80641,2.7255,2,1.3716,0,0.37172
16,3,40,132,3,1.2805,3.5309,2,0.92401,0,0.62589
16,3,41,133,3,0.41758,3.6209,1,1.1383,0,1.235
16,3,42,134,3,0.45025,3.8687,1,1.5785,1,0.5535
16,3,43,135,6,1.4375,6.7335,2,1.5432,0,0.28777
16,3,44,136,6,0.43927,6.2127,2,1.0894,1,0.3111
16,3,45,137,6,0.46778,6.2701,1,1.1604,0,0.66413
16,3,46,138,3,0.62655,3.304,1,1.1273,1,0.36572
16,3,47,139,3,0.94759,3.4321,2,2.0889,0,0.39457
16,3,48,140,3,0.75806,3.1265,2,2.3971,1,0.25079
16,3,49,141,3,0.56963,3.6846,2,0.7861,0,0.24708
16,3,50,142,6,0.45128,5.108,1,0.87686,0,0.85239
16,3,51,143,3,0.48972,7.4633,1,1.3241,1,0.76244
16,3,52,144,3,0.66576,5.2689,1,3.461,1,0.62163
16,3,53,145,3,0.94794,4.1067,2,2.0781,0,3.6141
16,3,54,146,6,0.62062,5.2241,2,0.64934,0,0.25654
16,3,55,147,6,0.82442,6.7133,2,1.3643,0,0.35148
16,3,56,148,3,1.1663,5.1927,1,1.7012,1,0.21747
16,3,57,149,3,0.80545,2.9236,2,1.5693,0,0.2064
16,3,58,150,6,0.41592,7.0063,2,2.5478,1,0.60245
16,3,59,151,6,0.46551,6.4183,2,1.4823,0,0.19094
16,3,60,152,3,0.80674,2.9634,3,0.33774,0,0.92347
16,3,61,153,3,1.2312,4.0951,3,0.33247,0,0.43148
16,3,62,154,6,0.90123,6.8948,2,0.42449,1,0.58921
16,3,63,155,6,0.98797,6.6354,3,0.28279,0,0.69369
16,3,64,156,3,0.99538,3.7053,3,0.25265,0,0.57268
16,3,65,157,3,0.77384,3.2245,3,0.34475,0,0.33895
16,3,66,158,3,0.63296,3.3934,3,0.34569,1,0.36616
16,3,67,159,6,0.85962,6.3653,3,0.7299,0,0.31572
16,3,68,160,6,0.82816,6.8672,3,0.26665,0,0.37078
16,3,69,161,3,0.92393,3.714,2,0.24789,1,0.30579
16,3,70,162,6,0.85599,6.1618,2,0.27659,1,0.33838
16,3,71,163,6,0.56795,5.5451,3,1.4157,1,0.37766
16,3,72,164,6,0.87811,5.6047,1,0.77545,1,0.26343
16,3,73,165,3,0.89067,2.8375,1,1.5669,1,0.15349
16,3,74,166,6,0.88446,6.82,2,0.72025,1,0.7855
16,3,75,167,3,1.1579,2.9381,2,1.1166,1,0.19239
16,3,76,168,6,2.0462,5.8655,1,0.28161,1,0.24294
16,3,77,169,6,0.79432,7.5654,1,0.70138,1,0.19541
16,3,78,170,6,0.36817,6.4214,2,0.57242,1,0.65082
16,3,79,171,3,1.1583,4.3012,2,0.42537,1,0.52698
16,3,80,172,3,1.2591,4.0137,2,0.74691,1,0.5532
16,3,81,173,6,0.49111,5.8775,1,1.7387,1,0.64616
16,3,82,174,3,1.0045,3.1973,2,1.1373,1,0.32221
16,3,83,175,6,0.9517,6.1451,3,7.3882,0,1.3965
16,3,84,176,3,1.3308,4.5432,1,0.96664,1,0.33148
16,3,85,177,3,0.92338,3.9376,2,1.0638,1,1.7773
16,3,86,178,6,0.45038,4.633,1,1.424,0,3.323
16,3,87,179,3,1.2175,3.7437,3,0.33193,0,0.26824
16,3,88,180,3,0.85352,3.8343,3,1.1131,0,0.39142
16,3,89,181,3,0.72046,4.1111,3,4.5692,0,0.2759
16,3,90,182,6,0.41361,6.8217,2,1.8722,0,2.7196
16,3,91,183,6,0.73094,6.3328,2,0.23054,0,0.37971
16,3,92,184,3,0.89394,3.3768,3,1.3225,0,0.24813
17,3,1,93,6,0.79177,4.2398,2,1.464,0,0.48994
17,3,2,94,6,0.40175,6.1081,3,1.6229,1,0.73571
17,3,3,95,6,0.59254,3.6908,3,1.3172,0,0.40543
17,3,4,96,6,0.6188,4.9709,3,1.4757,1,0.4259
17,3,5,97,3,0.65658,2.976,2,2.3588,0,0.5968
17,3,6,98,3,0.47005,2.5221,3,0.73222,0,1.3917
17,3,7,99,6,0.49357,3.9054,3,1.2891,0,0.67365
17,3,8,100,6,0.49199,5.2283,3,1.1046,1,0.47184
17,3,9,101,3,1.565,3.0563,2,0.94334,1,1.1021
17,3,10,102,3,0.54732,3.62,2,1.8383,0,1.3209
17,3,11,103,3,6.7293,4.0683,1,1.0891,0,0.47423
17,3,12,104,3,0.57616,2.0904,2,1.1966,0,0.43949
17,3,13,105,3,0.48629,4.0232,1,1.3147,1,0.44046
17,3,14,106,6,0.51744,5.7192,2,2.036,1,0.53039
17,3,15,107,6,0.57984,5.3327,2,1.345,1,1.8533
17,3,16,108,3,0.60254,2.2975,1,1.1782,0,0.49049
17,3,17,109,3,0.43027,2.6074,2,1.1455,1,0.34295
17,3,18,110,6,0.5992,5.2185,3,1.2494,1,1.6912
17,3,19,111,3,0.66624,2.6179,1,1.2028,0,1.1065
17,3,20,112,3,0.46236,4.2819,1,1.136,1,0.29521
17,3,21,113,6,0.62037,5.4352,2,1.2362,1,0.26913
17,3,22,114,6,0.56617,5.1678,1,1.2108,1,0.56557
17,3,23,115,3,0.56336,2.2941,3,1.5133,0,1.1044
17,3,24,116,3,0.50858,2.9528,2,1.6143,0,1.402
17,3,25,117,6,0.45528,5.6122,2,1.1414,1,3.0002
17,3,26,118,3,0.41474,3.2055,3,1.542,1,1.3494
17,3,27,119,3,0.57107,2.7235,3,1.0197,0,0.59593
17,3,28,120,3,0.69879,3.1299,3,2.8751,0,0.50823
17,3,29,121,6,1.1207,4.8837,3,1.2987,0,0.6647
17,3,30,122,3,0.61861,2.8831,2,1.1747,0,0.8876
17,3,31,123,6,0.60711,5.1894,1,1.7366,1,0.56856
17,3,32,124,3,0.68427,1.8946,2,1.4758,0,0.82633
17,3,33,125,6,1.0066,4.2868,3,1.3607,0,0.56492
17,3,34,126,6,0.77542,4.5524,3,1.1765,0,0.71352
17,3,35,127,6,0.89677,7.0445,1,1.1857,1,0.2825
17,3,36,128,3,1.8041,2.7068,3,0.8692,0,1.3333
17,3,37,129,6,0.57641,4.3168,2,1.6875,0,0.51951
17,3,38,130,3,1.1831,3.9667,1,1.3008,1,0.4675
17,3,39,131,6,0.92124,4.8972,3,1.8703,1,0.61922
17,3,40,132,6,0.99142,4.8763,1,1.0416,1,0.36245
17,3,41,133,6,0.52996,4.3287,2,1.7942,1,0.86424
17,3,42,134,3,0.43923,3.0624,2,1.575,0,0.96155
17,3,43,135,6,0.5322,4.155,2,2.527,0,1.3614
17,3,44,136,6,0.5273,4.7059,2,1.4377,0,0.73333
17,3,45,137,6,0.52904,4.3574,2,1.2776,1,0.31495
17,3,46,138,6,0.55372,4.1978,3,1.4358,0,0.43045
17,3,47,139,3,0.46085,3.1923,1,1.3946,1,0.2908
17,3,48,140,6,0.46236,3.7074,1,1.5291,1,0.52843
17,3,49,141,6,0.91639,5.6936,1,1.0882,1,0.64761
17,3,50,142,3,1.1188,3.7194,2,1.2131,1,0.40095
17,3,51,143,6,0.50545,4.2865,3,3.2027,1,1.6518
17,3,52,144,6,0.6147,5.7926,2,2.3122,0,0.9007
17,3,53,145,3,0.97412,2.1875,1,0.58158,0,0.79119
17,3,54,146,3,1.2385,3.7721,3,1.1148,1,0.91616
17,3,55,147,3,0.432,3.8928,1,1.0685,0,0.90713
17,3,56,148,3,0.6816,2.1296,3,0.70124,0,0.84555
17,3,57,149,3,0.50657,3.3124,2,1.1118,1,0.66608
17,3,58,150,3,0.53097,4.2288,1,1.2834,1,0.50397
17,3,59,151,3,0.38773,2.7367,3,1.7171,1,0.71508
17,3,60,152,6,0.59377,6.8429,2,1.5383,1,0.57146
17,3,61,153,3,0.49279,3.1545,1,0.83978,0,0.69994
17,3,62,154,3,0.49616,2.8078,1,0.61938,0,0.52232
17,3,63,155,3,0.49373,2.6537,3,1.6428,1,0.73655
17,3,64,156,6,0.74679,8.3454,1,1.524,1,0.58667
17,3,65,157,3,0.48588,2.7219,2,1.5173,0,0.4298
17,3,66,158,3,0.57236,2.5124,2,1.3257,0,0.88792
17,3,67,159,3,0.4856,2.4599,1,1.3348,0,0.46928
17,3,68,160,3,0.48197,3.8191,2,1.1493,1,0.52911
17,3,69,161,6,0.46225,5.5935,1,2.2639,1,0.45412
17,3,70,162,3,4.5499,3.3112,1,0.95977,0,0.8155
17,3,71,163,3,0.47739,2.3422,3,1.1226,1,0.93624
17,3,72,164,6,0.4154,3.5435,3,1.2089,1,1.2005
17,3,73,165,3,0.4911,3.2518,3,3.4258,1,1.2074
17,3,74,166,6,0.59062,4.7262,2,1.2907,0,0.48655
17,3,75,167,6,2.4167,6.0051,2,2.2002,1,0.6394
17,3,76,168,3,1.723,2.2471,2,1.5105,0,0.65214
17,3,77,169,3,0.40494,3.0123,3,1.3241,1,0.47497
17,3,78,170,6,0.55027,6.3693,2,1.7215,1,0.44473
17,3,79,171,6,0.58695,4.4094,3,1.6045,1,0.32157
17,3,80,172,6,0.44227,3.9037,3,0.95029,0,2.1191
17,3,81,173,3,0.65958,1.8523,2,1.7179,0,0.67929
17,3,82,174,3,0.38942,2.8249,2,0.95809,1,0.40105
17,3,83,175,6,0.67209,4.861,3,0.94312,1,0.41319
17,3,84,176,6,0.51641,4.5438,2,1.6044,0,0.48288
17,3,85,177,3,0.39188,2.903,2,1.1529,1,0.85748
17,3,86,178,6,0.58678,4.2599,2,1.5685,0,0.47963
17,3,87,179,3,0.52953,3.6576,2,0.84255,0,0.49051
17,3,88,180,6,0.56447,3.5928,1,0.78185,1,0.44145
17,3,89,181,6,0.46324,4.4338,2,1.2861,0,0.55767
17,3,90,182,6,1.0471,7.319,1,1.2547,1,1.1099
17,3,91,183,6,0.67905,5.0188,2,1.012,1,0.61363
17,3,92,184,6,0.49985,4.8951,2,1.5673,1,0.61691
18,3,1,93,6,0.40985,4.8168,3,2.4615,0,1.388
18,3,2,94,3,0.68153,3.0921,3,1.0329,0,1.3049
18,3,3,95,3,0.88539,5.0451,2,2.7305,1,1.5254
18,3,4,96,6,0.828,4.5296,2,1.6068,0,0.57347
18,3,5,97,3,0.68101,3.8456,3,1.5351,0,3.9174
18,3,6,98,3,2.3347,3.4331,3,1.887,0,1.0081
18,3,7,99,3,0.54389,3.8926,2,2.0811,1,1.0296
18,3,8,100,6,1.3001,4.7667,2,1.5735,1,0.92314
18,3,9,101,3,0.75458,2.4106,2,2.2616,0,1.4639
18,3,10,102,6,0.45952,4.1906,3,2.8031,0,1.579
18,3,11,103,6,0.5249,6.1159,3,4.0061,0,1.3023
18,3,12,104,3,0.90884,4.8277,2,2.4932,0,4.1975
18,3,13,105,6,0.36573,5.5809,3,1.8189,0,1.692
18,3,14,106,6,0.33941,5.1136,3,1.1189,0,0.86958
18,3,15,107,3,0.52251,3.0494,2,1.166,0,0.5295
18,3,16,108,6,0.4524,5.3097,2,2.0898,0,1.309
18,3,17,109,3,0.80317,3.9216,3,6.2903,0,1.3006
18,3,18,110,3,1.3279,2.9403,2,1.8809,0,0.54253
18,3,19,111,3,0.96923,4.0834,2,1.7253,0,1.913
18,3,20,112,6,1.042,5.9518,2,3.1458,0,1.7626
18,3,21,113,3,0.99199,5.063,3,0.99403,1,1.6284
18,3,22,114,3,0.684,3.6311,2,1.2752,0,4.4627
18,3,23,115,6,2.0056,7.4573,1,3.5226,1,1.842
18,3,24,116,6,0.60877,3.1658,2,2.2604,0,1.0615
18,3,25,117,3,0.65276,2.3583,2,1.0481,1,0.69068
18,3,26,118,6,0.44468,4.4317,2,1.3978,0,1.2396
18,3,27,119,6,0.3676,4.1577,2,1.8029,0,0.35661
18,3,28,120,6,0.69711,4.6212,1,3.8112,0,0.57086
18,3,29,121,3,0.83262,3.4675,2,2.3032,0,0.96752
18,3,30,122,3,0.75895,3.3151,2,2.0508,0,2.0661
18,3,31,123,3,3.3813,6.5505,2,2.1562,1,0.98341
18,3,32,124,6,0.36965,3.61,2,5.6819,0,0.84392
18,3,33,125,6,0.36333,7.0333,2,1.0296,1,0.72549
18,3,34,126,6,0.44219,6.0283,3,1.2151,0,1.691
18,3,35,127,6,0.5657,8.1561,2,1.6943,1,0.7266
18,3,36,128,3,0.79649,3.1449,3,2.0344,0,1.1158
18,3,37,129,3,0.75823,2.3267,3,1.0981,0,0.85396
18,3,38,130,3,3.8761,4.17,2,7.2368,0,1.0555
18,3,39,131,3,0.98518,3.3575,2,2.0056,0,0.67053
18,3,40,132,6,0.57908,7.2071,2,2.0976,1,2.2791
18,3,41,133,6,0.58575,4.5347,3,1.987,0,0.66882
18,3,42,134,3,2.2822,6.6039,2,5.3724,1,1.4767
18,3,43,135,3,0.53538,3.384,3,1.8738,1,0.73403
18,3,44,136,3,0.47415,2.5896,3,2.2431,0,0.48756
18,3,45,137,6,1.0776,7.227,2,4.2982,1,1.4485
18,3,46,138,6,0.62835,4.6812,2,3.1834,1,3.4017
18,3,47,139,6,0.33674,4.2242,3,1.8282,0,0.68927
18,3,48,140,3,0.41757,4.6839,2,1.2735,1,1.4361
18,3,49,141,6,0.44008,4.8769,2,1.6033,0,1.3441
18,3,50,142,6,2.1842,4.531,2,2.7228,0,0.51781
18,3,51,143,6,0.46775,4.2326,3,1.5122,0,0.60366
18,3,52,144,6,0.92474,5.5382,2,2.489,0,1.3683
18,3,53,145,6,1.3291,6.4785,2,1.5524,0,2.9934
18,3,54,146,6,0.041787,4.6916,2,1.1408,0,0.87489
18,3,55,147,3,1.0059,4.461,3,2.0431,1,2.3491
18,3,56,148,6,0.4465,4.8824,2,1.4106,1,0.95145
18,3,57,149,3,0.72131,4.8734,2,1.3007,1,1.3925
18,3,58,150,6,1.7097,4.6005,2,4.3505,0,1.1613
18,3,59,151,6,9.7425,3.3544,1,1.3025,0,1.2705
18,3,60,152,3,0.82239,4.1367,3,1.5493,0,1.4657
18,3,61,153,3,0.43823,3.3865,2,3.9511,0,1.6017
18,3,62,154,6,0.66567,4.6431,2,6.7922,1,1.4886
18,3,63,155,3,2.5178,7.7448,2,2.6006,1,0.76301
18,3,64,156,6,1.0498,0.47925,1,3.378,0,0.60924
18,3,65,157,3,0.54849,2.9671,3,1.8371,0,1.3949
18,3,66,158,3,0.87032,3.4599,2,11.57,0,1.3864
18,3,67,159,6,0.40035,4.3193,2,16.954,0,1.7114
18,3,68,160,6,0.45059,4.8328,2,1.8226,0,0.48353
18,3,69,161,3,0.38027,3.978,2,2.0202,1,0.50587
18,3,70,162,6,0.338,6.4869,2,1.4958,0,0.65449
18,3,71,163,6,0.36615,4.4699,2,1.339,0,0.59866
18,3,72,164,6,0.57254,7.4505,2,1.016,1,0.72935
18,3,73,165,6,0.42223,4.3383,2,2.4866,0,5.0303
18,3,74,166,3,0.95886,4.5514,3,1.2255,0,0.72679
18,3,75,167,3,0.56355,4.0209,3,0.90014,0,1.1312
18,3,76,168,6,0.47245,5.1247,2,1.5261,1,1.9882
18,3,77,169,3,0.31872,4.5467,2,1.3084,1,0.86231
18,3,78,170,6,0.77485,5.6887,2,4.6762,0,0.64122
18,3,79,171,3,0.8676,3.8817,2,3.2874,0,1.4896
18,3,80,172,3,0.55735,2.6259,2,0.90993,0,1.4912
18,3,81,173,3,0.97509,3.039,3,1.0171,0,3.7308
18,3,82,174,3,1.5345,2.4795,2,2.0508,0,0.54115
18,3,83,175,3,0.96541,3.1292,3,0.4998,0,0.35554
18,3,84,176,6,0.40567,5.0504,2,1.173,1,0.66068
18,3,85,177,3,1.1343,3.8065,3,2.6649,1,1.6163
18,3,86,178,6,0.50041,6.0577,2,1.1888,1,1.111
18,3,87,179,3,0.6297,2.4195,2,1.8671,0,1.1286
18,3,88,180,3,0.84183,4.5276,2,2.6798,0,1.5397
18,3,89,181,6,0.57735,0.73056,2,1.6151,0,0.43979
18,3,90,182,6,0.42797,3.7177,3,1.1362,0,1.3703
18,3,91,183,3,0.53453,2.5069,3,0.88363,0,1.6313
18,3,92,184,3,0.65744,3.1765,3,2.0961,0,0.37673
19,3,1,93,3,0.43561,3.0098,2,0.54624,0,0.57835
19,3,2,94,6,1.0165,4.5433,2,0.94169,1,1.5649
19,3,3,95,6,0.52939,5.6201,2,1.1865,1,1.008
19,3,4,96,6,0.89534,6.7548,2,1.0978,1,0.65287
19,3,5,97,3,0.40883,3.8267,2,1.4583,1,4.1879
19,3,6,98,3,0.91808,3.8825,2,0.5379,1,0.67353
19,3,7,99,6,0.40975,4.8551,2,1.1153,1,1.1286
19,3,8,100,3,1.331,5.7313,2,1.193,1,1.0019
19,3,9,101,3,0.61237,3.6063,2,1.2787,1,1.5423
19,3,10,102,6,1.8433,5.3503,2,1.4469,1,1.1381
19,3,11,103,6,0.61188,6.5174,2,1.2569,1,1.174
19,3,12,104,3,1.6889,5.9463,2,2.0286,1,0.15151
19,3,13,105,6,0.17753,4.9565,2,1.2243,1,0.9248
19,3,14,106,6,0.51061,6.2175,2,0.98295,1,1.0053
19,3,15,107,6,0.47417,3.4143,2,1.5003,1,0.79188
19,3,16,108,6,0.47789,4.2688,2,1.0631,1,1.0652
19,3,17,109,3,0.57919,3.8824,2,1.0623,1,1.0136
19,3,18,110,6,0.59061,5.0264,2,1.0647,1,0.62918
19,3,19,111,6,0.57788,6.4681,2,1.033,1,0.56682
19,3,20,112,3,0.7495,2.3813,2,0.43653,1,0.58485
19,3,21,113,6,0.58891,5.8384,2,1.6623,1,1.0145
19,3,22,114,3,1.034,6.6313,2,1.09,1,0.66249
19,3,23,115,6,1.5582,5.5243,2,0.87453,1,0.6878
19,3,24,116,3,0.49241,4.6405,2,1.3027,1,0.64465
19,3,25,117,6,0.44726,5.329,2,1.5431,0,0.61303
19,3,26,118,6,0.42493,3.0156,2,0.71378,1,0.74124
19,3,27,119,6,0.10339,2.7989,1,6.4992,0,1.2804
19,3,28,120,3,1.4415,4.0384,2,0.92626,1,1.0643
19,3,29,121,6,0.62488,5.4644,2,2.0563,0,0.65889
19,3,30,122,3,1.5055,2.3349,2,0.90313,0,0.55802
19,3,31,123,6,1.7875,4.3828,2,1.3489,1,0.63967
19,3,32,124,3,1.0236,4.7627,2,1.4562,1,1.2231
19,3,33,125,6,1.0383,5.1478,2,0.93188,1,0.70376
19,3,34,126,3,0.69036,6.8508,2,2.6794,1,0.46409
19,3,35,127,6,0.44207,6.4282,2,2.4385,1,0.55685
19,3,36,128,6,0.41403,6.904,2,1.3091,1,0.75036
19,3,37,129,3,0.65934,2.2776,2,1.1004,0,0.58062
19,3,38,130,3,1.4281,3.789,2,0.59088,1,0.8018
19,3,39,131,6,0.4516,6.5593,1,3.1978,1,0.95057
19,3,40,132,3,0.4963,2.7072,2,0.8066,1,0.63816
19,3,41,133,6,0.38914,5.8132,2,2.1787,0,1.4889
19,3,42,134,3,0.53082,3.1172,2,0.49972,1,0.54417
19,3,43,135,3,0.69209,5.165,2,2.2086,0,0.62187
19,3,44,136,6,0.43036,6.8045,2,0.85903,1,0.55084
19,3,45,137,6,1.1074,6.8132,2,2.2006,1,0.50307
19,3,46,138,6,0.86612,5.6806,2,1.2049,1,0.61008
19,3,47,139,6,0.48192,7.0174,2,1.0545,1,0.68443
19,3,48,140,6,0.13905,6.563,2,1.2517,1,1.6073
19,3,49,141,6,0.4157,8.1557,2,2.5684,1,1.1526
19,3,50,142,6,0.50587,5.3003,2,1.2213,1,0.9843
19,3,51,143,3,3.158,7.994,2,6.2123,1,0.96429
19,3,52,144,3,0.60149,4.646,2,1.3682,1,0.61828
19,3,53,145,6,0.4524,6.2343,2,0.79483,1,0.60395
19,3,54,146,3,0.60459,2.4248,2,0.47123,1,0.88603
19,3,55,147,3,0.38453,3.5709,2,1.5144,1,1.3515
19,3,56,148,3,0.47019,3.3605,2,1.1722,1,0.75998
19,3,57,149,6,0.4138,4.3042,2,0.63759,1,0.59799
19,3,58,150,6,1.205,6.1595,3,0.42494,1,0.72648
19,3,59,151,3,0.64508,3.3064,3,0.36708,1,0.62
19,3,60,152,3,1.1326,3.2801,3,1.7113,1,1.2391
19,3,61,153,3,0.42977,4.8193,2,1.6642,1,0.56265
19,3,62,154,3,0.39977,3.4818,2,1.225,1,0.67632
19,3,63,155,3,0.47895,4.6451,2,1.2314,1,1.1274
19,3,64,156,3,0.65072,5.3946,2,1.0917,1,0.70066
19,3,65,157,3,0.42137,4.3864,2,1.0525,1,0.65702
19,3,66,158,6,0.30212,5.421,2,1.2141,1,0.95125
19,3,67,159,6,0.42422,4.8774,3,1.4419,1,0.88696
19,3,68,160,6,0.6994,3.9816,2,0.87326,1,1.6499
19,3,69,161,3,0.57677,4.3409,2,0.99052,0,0.62563
19,3,70,162,3,0.36325,3.1712,3,0.72836,1,0.56336
19,3,71,163,3,0.46424,5.2549,2,0.85048,1,0.7566
19,3,72,164,6,0.51586,5.3813,2,0.9815,1,0.95358
19,3,73,165,3,1.1991,8.6832,1,1.587,1,0.61981
19,3,74,166,6,0.64094,4.4514,2,0.87622,1,0.86407
19,3,75,167,6,0.90744,5.1629,2,0.58057,1,0.5419
19,3,76,168,3,0.17778,3.3944,1,0.79727,1,1.6896
19,3,77,169,3,0.47885,3.8439,2,0.97084,1,0.69702
19,3,78,170,3,0.46215,4.131,2,1.2616,1,1.1149
19,3,79,171,3,0.67586,6.2524,2,0.92211,1,0.64807
19,3,80,172,3,0.45535,3.8001,2,1.0523,1,0.91941
19,3,81,173,6,0.58531,4.6339,2,0.91169,1,0.82925
19,3,82,174,6,0.54994,6.3073,2,0.95079,1,0.50495
19,3,83,175,3,0.27341,3.4511,2,0.71232,0,0.96462
19,3,84,176,6,0.37978,8.8338,2,0.81191,1,0.60064
19,3,85,177,3,0.60943,5.4909,2,0.71162,1,0.5017
19,3,86,178,3,0.49723,1.8296,2,0.69919,0,0.55523
19,3,87,179,6,2.8706,5.3076,3,0.56276,1,0.55275
19,3,88,180,3,0.60856,2.7028,2,1.0152,1,0.51604
19,3,89,181,6,1.1145,4.8573,2,1.0515,1,0.73119
19,3,90,182,6,0.29799,6.5559,1,1.8491,0,0.77587
19,3,91,183,3,0.57245,2.8125,2,0.68723,1,1.4225
19,3,92,184,3,0.49612,4.4198,2,0.94779,1,0.77829
20,3,1,93,6,0.54577,6.683,1,0.87943,1,0.93914
20,3,2,94,3,1.1921,3.3765,1,0.98276,0,0.9921
20,3,3,95,3,1.1281,4.0278,1,1.5333,1,0.8284
20,3,4,96,6,1.0924,6.6772,1,1.7868,1,1.5316
20,3,5,97,6,1.0019,5.5946,1,1.4908,1,0.99877
20,3,6,98,6,1.0683,5.5698,2,1.4114,0,0.81452
20,3,7,99,3,0.72354,1.8501,1,1.653,0,0.85684
20,3,8,100,3,0.91474,2.5965,2,2.7258,0,0.79611
20,3,9,101,6,0.95355,5.5846,2,1.6963,0,0.96633
20,3,10,102,6,1.0089,1.6395,1,2.4971,0,1.2394
20,3,11,103,3,2.0416,3.5101,2,1.3464,0,1.7505
20,3,12,104,3,1.1784,3.2912,3,1.5693,0,1.2438
20,3,13,105,6,1.0153,5.9823,3,0.9445,1,0.94176
20,3,14,106,3,0.89334,4.8038,1,1.148,1,0.94056
20,3,15,107,3,0.62667,3.6411,2,0.95526,1,0.92399
20,3,16,108,6,0.61914,6.8837,1,1.3556,1,0.80977
20,3,17,109,6,1.5255,6.1874,1,2.9229,0,3.9185
20,3,18,110,6,0.68081,6.4451,3,1.5752,0,0.91216
20,3,19,111,3,0.7117,4.1308,2,1.6849,0,0.86794
20,3,20,112,6,0.79983,5.3057,3,0.98893,1,1.925
20,3,21,113,3,0.95761,3.0254,3,1.0201,0,1.6975
20,3,22,114,3,0.92322,3.2249,1,1.0689,1,0.95738
20,3,23,115,6,0.78625,6.8096,3,1.7004,1,1.1914
20,3,24,116,6,0.51648,6.7443,1,1.7998,1,1.4144
20,3,25,117,3,1.2976,3.4435,1,3.0076,0,3.5081
20,3,26,118,3,0.75884,3.8031,2,1.0499,1,0.65529
20,3,27,119,3,1.105,4.1104,3,1.2935,0,0.90096
20,3,28,120,6,1.7715,7.0088,2,1.3122,0,1.254
20,3,29,121,6,0.9425,6.6388,1,1.7119,0,0.97546
20,3,30,122,6,0.97073,5.7351,2,1.8716,1,1.27
20,3,31,123,6,0.78807,6.1359,2,1.2465,1,1.7262
20,3,32,124,3,0.84743,3.9324,2,4.3375,0,0.96716
20,3,33,125,6,1.7649,6.0312,2,0.72943,0,0.92705
20,3,34,126,3,1.9978,4.192,3,1.4669,0,1.2159
20,3,35,127,3,1.0375,3.5107,1,1.296,1,0.81579
20,3,36,128,6,0.89651,6.5064,1,1.3249,1,0.87492
20,3,37,129,6,1.077,5.8656,3,1.507,0,1.06
20,3,38,130,3,2.2913,8.4223,1,1.9306,1,0.86559
20,3,39,131,6,0.87826,6.7927,1,0.95141,0,0.94468
20,3,40,132,6,1.0502,7.4559,1,1.1581,1,0.90131
20,3,41,133,6,1.2118,6.3041,2,1.2616,1,0.91577
20,3,42,134,3,0.94051,2.8119,2,1.9745,0,1.3353
20,3,43,135,6,0.8126,6.7067,1,1.4369,1,1.333
20,3,44,136,6,1.0155,7.2545,1,1.3335,1,0.96571
20,3,45,137,3,0.89109,3.6249,3,1.5068,1,1.3847
20,3,46,138,3,1.2867,3.445,1,1.1483,0,0.90232
20,3,47,139,3,1.4556,6.8592,1,0.96446,1,1.2024
20,3,48,140,3,0.80486,3.836,3,1.0504,1,0.83043
20,3,49,141,3,0.81684,3.5442,3,1.6829,1,1.0291
20,3,50,142,3,0.66571,2.7933,1,2.0087,0,1.2369
20,3,51,143,6,0.71973,6.0348,2,0.93301,1,1.5922
20,3,52,144,3,0.93464,3.4936,2,1.6957,0,1.8543
20,3,53,145,6,0.84846,6.6168,3,1.268,0,1.1189
20,3,54,146,3,2.0293,3.3525,1,2.3266,0,0.71157
20,3,55,147,3,0.85367,2.6844,2,1.2257,0,0.68729
20,3,56,148,3,0.72187,2.8488,3,1.2738,1,0.71112
20,3,57,149,6,0.86528,6.5035,1,1.6347,1,0.79188
20,3,58,150,3,1.9928,3.3867,1,2.6891,1,0.85574
20,3,59,151,6,1.5333,6.2458,3,2.1653,0,1.1295
20,3,60,152,3,0.79104,3.3889,2,1.1663,0,1.3041
20,3,61,153,6,0.85118,5.5447,2,0.97843,0,1.0547
20,3,62,154,6,0.48145,7.1303,1,1.0891,1,1.2101
20,3,63,155,6,0.94117,3.614,1,0.82391,0,0.63827
20,3,64,156,6,0.75458,5.6864,1,2.3606,0,0.84945
20,3,65,157,3,0.93492,5.9448,1,0.95181,1,0.60764
20,3,66,158,3,0.7452,3.8178,2,1.1354,0,0.97035
20,3,67,159,3,1.7301,4.354,2,1.4873,1,1.1826
20,3,68,160,6,0.80575,6.55,2,2.3171,0,1.1148
20,3,69,161,6,0.72978,6.1193,1,1.009,0,0.91426
20,3,70,162,3,1.0037,3.6709,2,0.95207,1,0.70745
20,3,71,163,6,0.72736,6.5928,1,1.1627,1,0.72734
20,3,72,164,6,1.7549,5.4947,3,0.62973,1,0.88881
20,3,73,165,3,0.76622,5.0312,1,0.95761,1,1.9385
20,3,74,166,3,1.1384,5.8987,1,1.2053,1,1.6598
20,3,75,167,3,1.1147,3.9456,3,1.5088,0,0.92432
20,3,76,168,3,0.74444,3.8303,3,1.3729,1,1.2732
20,3,77,169,3,0.75781,3.4274,1,1.2459,1,0.95415
20,3,78,170,3,0.98005,3.9554,3,1.2151,1,1.0035
20,3,79,171,6,0.67258,6.3497,2,1.1189,1,0.98258
20,3,80,172,6,0.81084,6.8418,1,1.5877,1,1.2714
20,3,81,173,6,1.7189,7.1053,1,1.3472,1,1.6004
20,3,82,174,6,0.61707,5.5704,2,1.3236,0,1.7868
20,3,83,175,3,1.1912,3.4633,2,1.4488,1,1.4021
20,3,84,176,6,0.70659,6.138,3,1.6237,1,1.398
20,3,85,177,6,0.50329,6.4845,3,1.2322,1,1.0285
20,3,86,178,3,0.9309,4.2949,3,1.1693,1,0.88287
20,3,87,179,6,0.67971,5.5191,1,1.1496,1,0.7659
20,3,88,180,3,0.98988,3.7239,3,0.59264,1,1.0276
20,3,89,181,6,1.0944,5.4289,3,1.305,0,1.7842
20,3,90,182,6,0.6015,8.1832,1,0.82492,1,0.91503
20,3,91,183,3,1.4018,3.094,2,1.1722,1,0.63607
20,3,92,184,3,0.93774,3.2608,1,1.1089,1,0.93961
21,3,1,93,3,0.62335,4.0004,2,1.6261,0,1.876
21,3,2,94,6,0.78755,6.1611,2,2.1384,1,3.47
21,3,3,95,6,0.86687,5.169,2,3.2747,0,1.6305
21,3,4,96,6,1.3262,6.9389,2,0.88556,1,0.74498
21,3,5,97,3,0.5189,3.234,2,1.0873,0,0.57184
21,3,6,98,3,0.72041,3.6978,2,1.2234,1,0.63686
21,3,7,99,6,1.0523,8.6578,2,1.2697,1,0.63201
21,3,8,100,6,0.5527,6.3974,2,1.891,0,2.7474
21,3,9,101,6,0.79131,6.0266,2,1.6748,1,0.7248
21,3,10,102,3,0.54081,3.515,2,1.5257,0,0.76175
21,3,11,103,6,0.58053,6.2964,2,1.0642,1,0.5903
21,3,12,104,6,1.0984,6.6573,2,0.51279,1,0.69027
21,3,13,105,6,1.273,6.4978,2,1.1536,0,0.74551
21,3,14,106,6,0.65898,5.7526,2,1.2601,1,2.0775
21,3,15,107,6,0.76555,6.0799,2,1.1904,1,0.61245
21,3,16,108,3,0.461,3.1058,2,0.92975,1,1.7016
21,3,17,109,3,0.5951,3.3066,2,0.88031,0,0.92681
21,3,18,110,6,0.80399,7.1847,2,0.54252,0,3.5286
21,3,19,111,6,1.2608,5.3777,2,0.9407,1,0.62649
21,3,20,112,6,1.0914,7.751,2,0.78933,1,0.5003
21,3,21,113,6,1.0311,6.258,2,1.4883,1,1.3843
21,3,22,114,6,1.1764,7.9149,2,1.3005,0,1.18
21,3,23,115,3,1.0913,5.0499,2,1.6858,1,1.1548
21,3,24,116,3,0.36448,3.6676,2,0.87696,1,0.6285
21,3,25,117,3,0.5132,3.62,2,0.91336,0,1.0397
21,3,26,118,3,0.75963,3.5652,2,1.1379,0,1.8728
21,3,27,119,3,0.92587,3.9402,2,1.3287,0,0.74048
21,3,28,120,6,0.96568,6.7549,2,0.70944,1,0.67793
21,3,29,121,6,0.88933,8.8993,2,1.4228,1,2.7354
21,3,30,122,3,0.75159,3.2325,2,1.0387,0,1.7749
21,3,31,123,3,0.72024,3.873,2,0.99075,1,1.5007
21,3,32,124,3,0.84334,3.9777,2,2.1072,1,3.1469
21,3,33,125,6,0.88447,8.8325,2,1.0497,1,0.56952
21,3,34,126,6,1.3146,9.131,2,0.9373,1,0.59742
21,3,35,127,3,0.83364,4.8188,2,0.67609,1,2.5283
21,3,36,128,3,0.68434,3.6066,2,0.89193,0,1.164
21,3,37,129,6,0.92855,7.7057,2,0.64511,1,0.63945
21,3,38,130,6,0.87854,6.531,2,2.0278,0,1.5625
21,3,39,131,6,0.77622,6.8654,2,0.89025,1,0.56346
21,3,40,132,3,0.94133,4.6633,2,0.67006,0,1.4727
21,3,41,133,6,0.89752,6.9824,2,1.0792,0,2.4006
21,3,42,134,3,0.83862,3.9611,2,1.1329,1,1.392
21,3,43,135,6,1.0784,6.4928,2,2.1477,0,1.2663
21,3,44,136,3,0.79514,3.8928,2,1.9193,0,0.99178
21,3,45,137,6,0.92707,4.3151,2,0.76172,1,2.0013
21,3,46,138,3,0.53449,4.1833,2,1.162,1,1.6792
21,3,47,139,6,1.627,5.5516,2,0.84701,1,1.3777
21,3,48,140,6,0.85336,7.9096,2,0.52298,1,0.5762
21,3,49,141,3,1.2996,3.5413,2,0.51775,0,0.48355
21,3,50,142,3,0.82221,5.3376,2,2.3242,1,1.4344
21,3,51,143,6,0.68996,5.2004,2,1.448,1,2.327
21,3,52,144,3,0.80936,3.3149,2,1.9264,0,0.58694
21,3,53,145,6,1.5107,7.5402,2,0.62156,1,0.61192
21,3,54,146,3,0.84272,4.1283,2,0.6075,1,0.71416
21,3,55,147,3,1.0865,3.7959,2,0.70914,0,0.6279
21,3,56,148,3,0.70731,3.5139,2,0.56116,0,2.5017
21,3,57,149,3,0.62895,3.4945,2,0.50806,0,0.55189
21,3,58,150,6,1.3258,6.465,2,0.61547,1,0.58035
21,3,59,151,3,1.0185,2.8072,2,0.59389,0,0.57964
21,3,60,152,3,0.95364,4.6969,2,0.88298,1,0.50485
21,3,61,153,3,0.68427,0.045139,1,5.3409,0,0.84144
21,3,62,154,6,1.1163,6.8051,2,0.64711,1,0.61603
21,3,63,155,6,0.82516,5.2901,2,1.1111,0,0.46647
21,3,64,156,6,1.7862,5.8438,2,1.464,0,1.438
21,3,65,157,6,1.2025,6.7815,2,1.0402,1,0.48843
21,3,66,158,3,0.71523,3.1051,2,1.0038,1,1.6226
21,3,67,159,6,1.4981,8.894,2,0.80897,1,0.52597
21,3,68,160,6,0.63774,5.6244,2,1.5859,0,1.5695
21,3,69,161,6,0.76541,6.4051,2,1.2737,0,1.9871
21,3,70,162,6,0.98886,5.1865,2,1.3502,0,0.5673
21,3,71,163,3,1.7488,4.5558,2,1.0004,1,2.8178
21,3,72,164,3,0.72183,3.974,2,1.1296,0,2.6884
21,3,73,165,6,1.1143,7.3695,2,0.88014,1,0.60298
21,3,74,166,3,0.91782,3.9069,2,1.1777,0,2.3159
21,3,75,167,3,0.87293,4.0872,2,0.64894,1,0.80602
21,3,76,168,6,1.0902,5.5489,2,0.62,1,0.54677
21,3,77,169,3,0.58057,4.1326,2,1.4246,0,2.6747
21,3,78,170,6,0.68683,5.1111,2,2.3531,1,1.2052
21,3,79,171,6,0.81511,5.6408,2,1.1864,1,0.52076
21,3,80,172,6,0.8063,6.0497,2,2.1191,1,3.1297
21,3,81,173,3,0.94635,6.2812,2,0.96655,1,0.50517
21,3,82,174,3,0.61093,3.1918,2,3.5455,0,1.3724
21,3,83,175,3,0.55307,3.1086,2,1.2456,0,1.042
21,3,84,176,3,0.66407,3.533,2,1.3388,0,0.49833
21,3,85,177,3,0.57966,2.92,2,1.1777,0,0.55308
21,3,86,178,3,0.64636,4.3821,2,0.5603,1,0.54255
21,3,87,179,3,0.62616,3.8656,2,1.3505,1,1.0047
21,3,88,180,3,0.80495,5.3869,2,0.74956,1,0.49307
21,3,89,181,3,0.5985,3.4919,2,1.057,0,0.574
21,3,90,182,3,0.60762,3.7639,2,0.92276,1,0.74993
21,3,91,183,6,0.76563,8.8923,2,0.79458,1,0.82656
21,3,92,184,6,0.72771,9.5922,2,0.6927,1,0.61602
22,3,1,93,6,0.50994,5.7677,2,1.6708,0,2.5819
22,3,2,94,3,1.0164,3.4921,3,1.4566,1,1.3604
22,3,3,95,6,0.46599,5.5565,2,1.9786,0,0.66349
22,3,4,96,6,0.60487,4.9736,3,3.0374,0,1.7662
22,3,5,97,6,1.0687,5.5564,1,1.5779,0,1.727
22,3,6,98,6,0.94121,5.8127,3,1.6666,1,1.1656
22,3,7,99,3,1.3943,2.6521,2,1.5276,1,2.2642
22,3,8,100,3,0.39659,2.8079,3,0.76991,0,0.94704
22,3,9,101,6,1.007,6.1376,1,2.6979,1,0.064435
22,3,10,102,3,0.39699,2.4914,2,1.658,0,0.68659
22,3,11,103,3,0.84036,2.7764,3,1.2344,0,0.95571
22,3,12,104,6,0.47002,5.5855,3,4.5986,0,2.135
22,3,13,105,3,0.93407,3.2318,2,9.064,1,2.3493
22,3,14,106,3,0.44709,3.0675,3,3.3238,0,2.7192
22,3,15,107,6,0.71853,4.546,2,1.2814,0,1.6654
22,3,16,108,6,0.48251,5.557,3,1.8118,1,1.3136
22,3,17,109,3,3.2106,4.0719,2,0.9754,0,0.92632
22,3,18,110,6,1.1037,6.0212,3,1.7241,1,1.4486
22,3,19,111,3,0.91369,10.146,1,1.5688,1,0.69409
22,3,20,112,3,0.56269,3.5452,3,1.0713,1,1.0354
22,3,21,113,3,0.9004,4.3816,2,1.1603,1,1.2025
22,3,22,114,3,0.78926,2.4484,3,4.2377,0,1.867
22,3,23,115,6,3.6876,3.6426,1,0.8686,0,0.85866
22,3,24,116,6,0.4785,5.5941,2,1.2764,0,0.73952
22,3,25,117,6,1.5859,0.78037,1,2.2916,0,0.92129
22,3,26,118,6,0.37903,4.9947,3,2.3552,0,0.39363
22,3,27,119,3,0.83933,3.1118,3,1.3985,0,1.3908
22,3,28,120,6,1.0485,6.9836,3,1.0042,1,2.046
22,3,29,121,6,1.1364,6.5585,2,4.7512,1,0.83838
22,3,30,122,3,0.43665,2.4608,3,1.8882,1,0.6814
22,3,31,123,6,0.61803,5.7575,2,2.3156,0,1.5165
22,3,32,124,3,1.776,5.8262,1,1.3871,0,0.92102
22,3,33,125,6,0.67705,6.1898,2,3.6274,0,0.57103
22,3,34,126,6,0.54465,5.4049,3,2.1013,0,2.1921
22,3,35,127,6,0.96799,6.2948,3,1.6135,1,1.9172
22,3,36,128,6,1.3336,6.1919,2,2.661,0,0.12425
22,3,37,129,6,0.54187,6.1769,3,3.3751,1,0.8197
22,3,38,130,6,0.46718,3.721,2,1.776,0,0.49967
22,3,39,131,6,2.4788,5.1881,1,1.4388,1,0.72246
22,3,40,132,3,1.0861,3.283,2,1.9859,1,0.94225
22,3,41,133,3,0.97989,2.8194,3,1.7278,1,2.1765
22,3,42,134,6,1.5044,5.7577,2,2.1778,0,0.90052
22,3,43,135,6,0.90995,5.8397,3,1.7392,1,1.0347
22,3,44,136,3,1.7155,3.1064,2,1.5433,0,0.53916
22,3,45,137,6,0.68288,5.2066,2,1.5241,1,0.3735
22,3,46,138,6,0.60504,4.786,2,5.8516,0,1.7835
22,3,47,139,3,0.61268,2.1565,3,1.8708,0,0.80658
22,3,48,140,3,1.0957,3.406,2,1.5914,1,0.84856
22,3,49,141,3,0.58408,3.0698,3,0.89013,0,0.96284
22,3,50,142,3,1.1415,2.8764,1,2.4345,1,2.2151
22,3,51,143,6,1.0079,4.6757,3,7.228,0,1.4896
22,3,52,144,6,0.79626,5.6567,2,2.5858,0,3.7153
22,3,53,145,3,0.53149,2.729,2,1.3875,0,0.97213
22,3,54,146,3,0.47782,2.994,3,0.9467,0,0.46586
22,3,55,147,3,0.7537,3.4232,3,1.8668,0,0.56575
22,3,56,148,6,0.50227,5.7963,2,1.2291,1,0.95483
22,3,57,149,6,1.0073,4.3747,2,1.6156,0,1.1775
22,3,58,150,3,0.52039,2.2478,3,1.5489,0,1.5159
22,3,59,151,6,0.75208,5.7341,3,2.0831,0,3.4651
22,3,60,152,3,1.4825,4.7449,2,2.6316,1,1.8772
22,3,61,153,6,1.1083,5.2262,3,2.4645,1,3.7783
22,3,62,154,3,0.88097,3.0192,3,1.7276,0,0.88882
22,3,63,155,3,0.60799,4.2781,2,1.3694,0,0.61911
22,3,64,156,3,0.70733,3.0129,3,1.0994,1,1.7423
22,3,65,157,3,0.45214,3.1214,3,1.7037,1,0.906
22,3,66,158,6,0.47494,5.4145,3,1.1077,0,1.325
22,3,67,159,3,1.4089,3.2764,3,2.8086,0,4.7456
22,3,68,160,3,1.1774,3.5147,3,1.6878,1,0.92041
22,3,69,161,3,3.0076,2.9201,2,2.3651,0,0.67809
22,3,70,162,6,0.90999,4.6541,3,1.0272,0,1.0533
22,3,71,163,3,0.84344,3.3915,3,1.8806,1,0.91726
22,3,72,164,6,0.87338,7.3884,2,2.4205,1,1.2915
22,3,73,165,3,0.55951,4.0279,3,4.4088,0,1.7535
22,3,74,166,3,0.65247,2.8082,3,3.4085,0,6.3191
22,3,75,167,3,0.87967,7.706,1,1.9452,1,1.9517
22,3,76,168,3,4.732,8.4726,2,14.369,0,1.0754
22,3,77,169,3,0.41398,3.0301,3,1.5003,1,2.4284
22,3,78,170,6,0.38676,3.9609,2,1.6698,0,2.1068
22,3,79,171,6,1.2233,4.3492,2,1.7238,0,0.93488
22,3,80,172,3,2.7847,2.2436,1,0.8736,0,0.96309
22,3,81,173,6,0.55211,5.0342,3,1.7863,0,1.8429
22,3,82,174,3,2.861,4.2743,2,1.9658,0,3.3503
22,3,83,175,6,7.4058,3.7206,2,3.3262,0,1.984
22,3,84,176,6,0.83219,4.593,3,1.4656,0,1.2417
22,3,85,177,6,0.34724,7.6792,1,2.285,1,0.41548
22,3,86,178,3,1.995,3.4638,3,1.3252,0,2.6258
22,3,87,179,3,1.0322,6.0411,2,1.7237,1,0.78493
22,3,88,180,6,0.74227,6.9034,3,5.2835,1,4.8595
22,3,89,181,6,1.1765,5.0147,2,1.9957,0,0.51426
22,3,90,182,3,1.3596,3.6518,3,3.3744,0,0.93029
22,3,91,183,6,1.0916,6.0384,3,0.91121,0,1.0179
22,3,92,184,3,0.83086,3.8954,2,1.5464,1,1.0291
23,3,1,93,6,0.4818,4.3048,3,1.8634,1,0.52835
23,3,2,94,6,0.62648,5.2661,3,3.8836,0,2.2265
23,3,3,95,3,1.1332,3.1173,2,1.3866,0,1.0577
23,3,4,96,3,1.1302,3.4185,3,1.5504,1,1.3537
23,3,5,97,3,0.70452,3.6231,2,1.3164,0,0.67943
23,3,6,98,6,1.0289,5.2545,3,1.9898,0,0.98281
23,3,7,99,6,0.80127,5.9705,2,1.6355,0,0.80486
23,3,8,100,3,0.75364,3.9961,3,2.1853,1,1.1406
23,3,9,101,3,0.97591,3.1771,2,2.7097,0,0.62354
23,3,10,102,3,1.7054,3.1968,3,1.3622,1,0.80384
23,3,11,103,6,0.67464,4.915,3,2.9219,0,1.2543
23,3,12,104,6,0.90345,5.1476,2,1.3684,0,1.3817
23,3,13,105,3,1.3045,3.7591,3,1.0195,1,1.4453
23,3,14,106,6,0.61524,6.0052,3,1.6368,0,1.0201
23,3,15,107,3,1.4247,4.6751,3,1.6782,0,0.72551
23,3,16,108,6,0.48562,5.3724,2,1.1148,1,0.87816
23,3,17,109,6,0.68063,8.3716,2,1.7786,1,0.87727
23,3,18,110,6,0.85055,5.595,3,1.3155,0,0.9645
23,3,19,111,6,1.5443,5.9015,2,2.8959,0,0.78807
23,3,20,112,3,0.77201,4.3868,3,2.5857,0,1.8898
23,3,21,113,3,0.98947,5.9998,1,4.7199,1,0.67614
23,3,22,114,6,0.49977,4.0691,3,2.1114,1,1.039
23,3,23,115,6,0.91406,7.2325,2,4.0517,0,0.86391
23,3,24,116,3,0.84481,2.4173,3,2.4526,0,1.4028
23,3,25,117,6,0.44095,6.5022,2,1.746,1,0.32781
23,3,26,118,6,1.1616,7.0283,3,2.3492,1,0.28015
23,3,27,119,6,0.73509,4.5443,3,1.2189,0,0.86982
23,3,28,120,3,1.6629,3.3532,2,3.3895,0,1.6184
23,3,29,121,3,2.9135,4.7257,2,2.2162,1,0.60152
23,3,30,122,6,0.36252,4.8954,2,2.6803,1,0.52761
23,3,31,123,6,1.2157,5.1821,3,3.5473,0,1.1605
23,3,32,124,3,0.91688,4.4193,2,2.4874,0,1.5823
23,3,33,125,3,1.0461,2.5922,3,1.734,0,0.67889
23,3,34,126,3,0.87465,3.2898,3,2.504,0,1.0547
23,3,35,127,6,0.85833,6.6149,2,1.1414,1,0.78856
23,3,36,128,3,1.4457,3.379,2,2.8109,0,0.63519
23,3,37,129,3,0.93602,2.6459,3,1.4761,1,1.3382
23,3,38,130,3,0.69993,3.257,2,2.1804,1,0.81636
23,3,39,131,3,1.1897,2.9107,3,1.2859,0,0.5696
23,3,40,132,3,0.7707,2.4842,2,1.9768,0,0.48725
23,3,41,133,6,0.55089,6.3575,3,1.9889,1,0.40755
23,3,42,134,3,0.95448,3.148,3,1.4255,0,1.038
23,3,43,135,3,1.3738,2.1108,3,1.7754,0,0.96292
23,3,44,136,3,0.89497,3.4298,2,1.6605,1,0.67582
23,3,45,137,6,0.56768,6.533,3,1.867,1,0.32848
23,3,46,138,3,2.2725,4.9568,2,1.7633,1,0.27828
23,3,47,139,3,0.59567,3.4809,3,1.9127,1,0.27832
23,3,48,140,6,1.3593,6.0631,2,1.2025,1,0.35765
23,3,49,141,6,0.81391,5.4572,3,2.0872,1,0.58036
23,3,50,142,6,0.91931,6.0207,2,1.4985,0,1.4403
23,3,51,143,3,1.1644,5.532,3,1.4825,1,0.42755
23,3,52,144,6,0.76873,5.0959,2,1.2804,0,2.2023
23,3,53,145,3,0.82453,1.9267,2,1.4618,0,0.57894
23,3,54,146,3,0.81058,3.242,3,0.96966,1,0.81995
23,3,55,147,6,3.1235,5.5306,3,2.2181,0,0.90396
23,3,56,148,6,1.9068,6.0087,2,1.5511,0,2.554
23,3,57,149,3,0.70875,3.2275,3,1.3849,0,0.51882
23,3,58,150,6,0.97602,6.7139,3,1.1022,0,0.51985
23,3,59,151,3,2.2621,6.9886,3,4.0843,1,0.21349
23,3,60,152,6,0.77598,6.9282,3,1.8244,0,0.72257
23,3,61,153,3,1.2084,3.3494,3,2.2394,1,0.45829
23,3,62,154,6,0.73665,6.7963,2,1.5384,0,0.74734
23,3,63,155,3,0.89539,4.3677,3,1.6516,0,1.1424
23,3,64,156,3,1.3663,3.5673,2,2.2729,0,0.53281
23,3,65,157,6,1.2306,8.4064,3,1.5433,1,0.50199
23,3,66,158,6,1.3613,6.0651,2,2.9808,1,0.25166
23,3,67,159,6,0.9262,7.4774,3,1.8001,1,0.35503
23,3,68,160,3,1.5447,2.9027,3,2.7143,1,0.13972
23,3,69,161,6,0.56773,5.8073,2,1.698,1,0.28962
23,3,70,162,6,1.3787,4.1151,3,2.0997,1,0.10158
23,3,71,163,3,1.7744,7.1485,1,5.0409,1,0.13765
23,3,72,164,6,0.72074,6.1356,2,2.5091,0,0.93477
23,3,73,165,6,1.7566,5.4856,3,2.048,0,0.61647
23,3,74,166,6,1.5777,4.5394,2,1.8636,1,0.78995
23,3,75,167,3,0.75241,2.097,2,3.073,0,0.34361
23,3,76,168,3,0.98764,2.7224,3,1.3054,1,0.58429
23,3,77,169,3,1.4718,4.9594,3,2.2779,0,2.0747
23,3,78,170,6,0.75908,7.9021,3,3.5039,1,0.62631
23,3,79,171,3,0.84864,3.4042,3,2.7137,1,1.1139
23,3,80,172,3,2.2031,3.0177,3,2.3874,0,0.46875
23,3,81,173,3,0.83701,3.3094,2,2.1584,1,0.54796
23,3,82,174,6,0.77045,5.7097,3,6.2003,1,0.4574
23,3,83,175,3,0.99206,4.6019,3,0.53737,0,0.86173
23,3,84,176,6,0.80263,3.8597,2,4.4307,0,0.28394
23,3,85,177,3,3.7972,3.2369,2,2.3638,0,0.40161
23,3,86,178,6,0.64055,6.2017,3,1.9836,1,2.4641
23,3,87,179,3,1.3767,3.3635,3,1.9987,1,0.75149
23,3,88,180,3,0.84381,2.3658,3,1.1642,0,0.40191
23,3,89,181,6,0.77845,8.6179,3,10.601,0,1.1109
23,3,90,182,6,0.68951,6.612,3,2.8377,1,0.75434
23,3,91,183,6,0.67779,6.8187,2,1.2056,0,0.46079
23,3,92,184,6,0.72296,5.8367,3,1.5358,1,0.69468
24,3,1,93,6,0.80611,5.4868,3,1.6497,0,1.1279
24,3,2,94,3,0.63377,2.9811,2,1.4638,0,0.56353
24,3,3,95,3,0.43731,2.1728,3,1.3959,0,0.8035
24,3,4,96,6,0.97758,6.2291,2,2.8152,0,0.56363
24,3,5,97,3,0.48506,2.0098,2,1.6246,0,0.48597
24,3,6,98,3,0.48123,2.5166,3,1.3259,0,0.46428
24,3,7,99,3,0.56042,2.5917,3,1.6844,0,0.54124
24,3,8,100,6,0.52963,3.5565,1,1.7427,1,1.099
24,3,9,101,6,0.48824,5.2005,2,1.8347,1,0.80441
24,3,10,102,3,0.79914,3.3183,3,0.86174,1,0.92613
24,3,11,103,6,0.94042,5.9621,1,1.1284,0,0.69097
24,3,12,104,6,0.51637,3.7059,2,1.6413,1,1.9606
24,3,13,105,6,0.38514,3.9717,2,1.9882,1,1.5706
24,3,14,106,6,0.93413,6.8184,3,1.4939,0,5.3139
24,3,15,107,3,0.53867,3.2127,2,1.3862,1,0.71965
24,3,16,108,3,1.0808,3.3446,2,1.7969,0,1.6666
24,3,17,109,6,0.74214,7.9036,2,1.6666,0,0.80318
24,3,18,110,3,0.68267,3.2305,3,1.0125,0,2.2393
24,3,19,111,3,0.68497,1.8702,3,1.5689,0,0.65633
