Subj_idx,Block,Trial_in_block,Trial,Stimulus,RT_start,Response,Confidence,RT_conf,ErrorDirection,RT_error
1,1,1,1,3,2.5049,3.444,1,3.9595,1,2.9173
1,1,2,2,3,1.1593,3.002,3,1.4883,0,3.9093
1,1,3,3,3,1.0281,5.3547,1,2.3386,1,1.2441
1,1,4,4,3,0.66439,2.5594,3,1.4216,0,1.4089
1,1,5,5,3,0.83462,3.7453,3,2.3335,0,1.0649
1,1,6,6,3,2.8252,3.5592,2,2.6822,0,1.5658
1,1,7,7,3,0.88346,2.2172,3,1.1283,0,3.8283
1,1,8,8,3,0.81472,3.6588,3,1.6928,0,0.87504
1,1,9,9,3,0.67569,2.8772,2,1.7736,0,0.83433
1,1,10,10,3,1.1828,2.3801,1,2.5982,0,0.66408
1,1,11,11,3,1.1437,3.178,3,1.6227,1,1.6468
1,1,12,12,3,0.57321,4.1011,3,1.751,0,0.74206
1,1,13,13,3,0.66549,3.2294,3,1.3622,0,1.378
1,1,14,14,3,0.48185,3.4431,3,1.8078,0,2.9236
1,1,15,15,3,0.59137,1.8891,3,1.2208,0,0.80863
1,1,16,16,3,0.72995,3.0447,3,1.6725,0,0.90964
1,1,17,17,3,0.54253,2.5522,3,1.5288,0,1.7534
1,1,18,18,3,0.83665,2.6718,2,3.143,0,0.76987
1,1,19,19,3,0.68302,2.2797,3,1.1484,0,0.72856
1,1,20,20,3,0.71803,3.0962,2,1.411,0,0.84012
1,1,21,21,3,0.70543,1.9749,3,1.6228,0,1.9717
1,1,22,22,3,0.39313,2.0668,3,1.2903,0,0.57419
1,1,23,23,3,0.57841,2.9427,2,1.8591,1,0.68758
1,1,24,24,3,1.9846,2.3703,1,1.918,0,0.82914
1,1,25,25,3,0.77075,3.3356,2,1.575,1,0.93679
1,1,26,26,3,1.6671,3.608,2,2.0805,0,0.59083
1,1,27,27,3,0.86158,2.0919,3,1.2489,0,0.54091
1,1,28,28,3,1.2733,2.6362,3,1.2911,0,0.78768
1,1,29,29,3,0.68872,2.9371,2,1.6911,0,0.51131
1,1,30,30,3,0.78581,2.6329,3,1.8747,0,0.87435
1,1,31,31,3,0.63535,3.7457,3,8.7347,0,0.71739
1,1,32,32,3,1.0276,3.2152,2,1.5522,0,0.55614
1,1,33,33,3,0.65899,3.3022,2,4.9389,0,0.74076
1,1,34,34,3,0.79412,3.1049,3,2.0419,0,0.26005
1,1,35,35,3,0.68246,1.9423,2,1.9735,0,0.78537
1,1,36,36,3,0.70485,2.7865,3,1.6777,0,0.4646
1,1,37,37,3,0.96757,2.0559,3,2.4077,0,0.92171
1,1,38,38,3,1.2755,3.35,3,1.6365,0,1.6692
1,1,39,39,3,0.73933,2.9505,2,1.4245,1,1.4495
1,1,40,40,3,1.0317,3.7446,1,2.4209,1,1.1426
1,1,41,41,3,0.67787,2.6172,2,1.3888,0,1.2349
1,1,42,42,3,0.8294,3.369,2,1.8376,0,0.58257
1,1,43,43,3,0.68184,2.8303,3,1.738,0,0.68247
1,1,44,44,3,0.70519,3.4615,1,1.7592,1,0.97478
1,1,45,45,3,0.66404,3.1717,3,1.1407,0,0.67558
1,1,46,46,3,0.73301,3.2056,2,1.5789,0,0.54132
2,1,1,1,3,1.6963,2.3529,3,1.1678,0,1.7175
2,1,2,2,3,2.328,2.6383,2,1.7181,0,3.304
2,1,3,3,3,2.1086,3.0237,1,2.7306,0,3.9389
2,1,4,4,3,2.4843,2.4814,3,2.052,0,1.5676
2,1,5,5,3,3.2961,2.7737,3,1.6199,1,1.2059
2,1,6,6,3,2.4829,2.9415,3,1.2955,0,1.1545
2,1,7,7,3,3.0618,4.0486,2,2.3125,1,2.7892
2,1,8,8,3,1.9958,3.2147,2,2.0896,1,1.8077
2,1,9,9,3,1.5777,2.8775,3,5.6098,1,5.4897
2,1,10,10,3,1.7844,2.9801,1,1.2744,0,6.7631
2,1,11,11,3,3.8192,2.9147,1,2.5859,0,4.6163
2,1,12,12,3,1.4405,1.0368,2,1.7465,1,1.2039
2,1,13,13,3,2.4411,2.3214,1,1.7186,1,3.7426
2,1,14,14,3,2.1073,2.0093,3,1.424,0,4.0622
2,1,15,15,3,1.562,2.8527,2,1.4155,0,5.1781
2,1,16,16,3,1.9126,3.6522,1,2.212,0,4.5763
2,1,17,17,3,5.095,2.4918,2,1.2851,1,1.1559
2,1,18,18,3,2.1641,2.5401,3,1.609,0,3.8371
2,1,19,19,3,1.9055,3.1082,2,3.4692,0,6.9304
2,1,20,20,3,2.1432,3.1493,3,1.5023,1,4.6074
2,1,21,21,3,1.4053,3.0718,2,1.3544,0,13.16
2,1,22,22,3,1.1443,2.7155,1,3.7998,0,3.7143
2,1,23,23,3,1.4473,2.6181,2,1.1518,1,3.1688
2,1,24,24,3,1.562,2.8277,2,1.2357,0,2.6452
2,1,25,25,3,1.4472,2.8815,3,1.013,0,2.0904
2,1,26,26,3,1.2137,2.281,2,1.4618,0,1.2519
2,1,27,27,3,1.2087,1.7381,2,2.171,1,2.2561
2,1,28,28,3,1.0361,2.3334,3,1.3398,1,2.7858
2,1,29,29,3,1.1819,3.1822,1,2.0141,0,2.3412
2,1,30,30,3,2.232,1.6908,2,1.9738,1,2.2722
2,1,31,31,3,1.1034,2.1967,2,1.6781,0,0.92661
2,1,32,32,3,1.1103,3.6775,2,1.6712,0,4.5201
2,1,33,33,3,1.3112,2.9147,1,6.8638,1,6.0398
2,1,34,34,3,1.6832,3.2955,2,1.9857,1,1.2799
2,1,35,35,3,1.1171,2.6053,1,1.2814,0,0.98969
2,1,36,36,3,1.4067,2.9617,2,1.8489,0,2.1013
2,1,37,37,3,1.2351,3.0563,2,1.7807,0,3.6172
2,1,38,38,3,2.3116,3.8636,1,1.4977,1,1.4896
2,1,39,39,3,1.5003,4.1549,2,1.4138,1,2.5132
2,1,40,40,3,1.1925,3.4893,1,4.2173,0,2.3758
2,1,41,41,3,0.95739,4.0126,2,1.135,1,1.0437
2,1,42,42,3,1.2013,2.3309,2,1.5497,0,2.4912
2,1,43,43,3,1.2052,3.6718,1,2.1523,1,1.0676
2,1,44,44,3,1.1155,2.3835,2,1.3267,0,0.85123
2,1,45,45,3,1.3476,3.8322,2,2.8124,0,1.962
2,1,46,46,3,0.91216,2.5302,3,1.3258,1,1.6761
3,1,1,1,3,2.0688,3.2168,2,3.0487,0,1.7894
3,1,2,2,3,1.2224,3.2722,2,1.3795,1,2.2414
3,1,3,3,3,1.2481,2.8575,2,1.056,1,3.0612
3,1,4,4,3,0.88001,3.095,3,1.2108,0,1.6275
3,1,5,5,3,0.79186,3.1525,3,0.88824,0,2.1363
3,1,6,6,3,3.2761,3.8959,2,1.3961,1,1.2296
3,1,7,7,3,0.96849,3.0446,2,0.96089,1,0.56589
3,1,8,8,3,0.82999,3.9064,2,1.1534,1,0.57016
3,1,9,9,3,0.89423,3.953,2,1.0132,1,1.3021
3,1,10,10,3,0.69122,3.6888,2,1.0152,1,0.59143
3,1,11,11,3,5.7666,2.8337,2,0.77413,1,0.80134
3,1,12,12,3,1.2797,3.3419,2,0.69524,1,0.66345
3,1,13,13,3,0.78445,3.108,2,0.68127,1,0.55497
3,1,14,14,3,0.83595,2.6827,3,1.1241,1,0.87624
3,1,15,15,3,0.8502,3.7059,3,0.64008,1,0.5505
3,1,16,16,3,1.8272,2.9133,3,1.4018,1,0.61753
3,1,17,17,3,0.72369,3.3634,3,0.79903,1,0.55393
3,1,18,18,3,0.7538,2.423,3,0.64549,1,0.53908
3,1,19,19,3,0.76428,2.4827,2,0.38693,1,0.71109
3,1,20,20,3,0.68694,2.8973,3,0.83851,1,0.6121
3,1,21,21,3,0.64181,3.8277,3,1.0829,1,0.2042
3,1,22,22,3,0.62431,2.8005,3,0.30056,1,0.22144
3,1,23,23,3,0.52662,2.7429,3,1.0097,1,0.20018
3,1,24,24,3,1.6993,3.1069,3,1.4434,1,0.2258
3,1,25,25,3,0.54807,3.3802,3,0.88633,1,0.1968
3,1,26,26,3,1.6266,4.2891,3,1.3891,1,0.28516
3,1,27,27,3,0.62348,3.2754,3,0.25705,1,0.22745
3,1,28,28,3,0.55476,3.3109,3,0.37186,1,0.60018
3,1,29,29,3,0.67148,3.7729,3,0.76589,1,0.56841
3,1,30,30,3,0.73107,3.209,3,0.37051,1,0.6973
3,1,31,31,3,0.51886,3.2218,3,0.69123,1,0.66394
3,1,32,32,3,0.50289,3.3227,3,0.87966,1,0.90218
3,1,33,33,3,1.5852,3.1799,3,0.86287,1,0.60107
3,1,34,34,3,0.73351,3.6821,3,0.662,1,0.35176
3,1,35,35,3,0.61664,3.9306,3,0.79843,1,1.0173
3,1,36,36,3,0.74031,3.6009,3,0.67743,1,0.56751
3,1,37,37,3,0.80592,4.1003,3,0.912,1,1.2646
3,1,38,38,3,2.914,3.8882,3,4.9518,1,5.0243
3,1,39,39,3,0.68606,4.0225,3,1.2145,1,0.63964
3,1,40,40,3,0.57362,4.1002,3,0.85102,1,0.68222
3,1,41,41,3,1.2096,4.3278,3,1.1183,1,0.63249
3,1,42,42,3,0.99929,3.1045,2,1.2784,0,2.3906
3,1,43,43,3,0.75767,3.5756,3,0.75645,1,0.57496
3,1,44,44,3,0.68919,3.6619,2,1.997,0,1.141
3,1,45,45,3,0.95956,3.99,3,0.50408,1,0.56022
3,1,46,46,3,1.0297,3.3927,3,0.42003,1,0.49729
4,1,1,1,3,3.1666,3.3905,3,2.0929,1,6.087
4,1,2,2,3,2.3277,3.5755,2,3.6306,1,3.3241
4,1,3,3,3,1.4644,2.4816,3,3.9739,0,1.5041
4,1,4,4,3,1.0715,3.522,2,3.003,0,7.0281
4,1,5,5,3,1.275,2.3254,3,2.6226,1,1.8571
4,1,6,6,3,1.437,2.8833,2,1.6991,1,2.0403
4,1,7,7,3,1.4595,2.7269,3,2.5979,0,1.6387
4,1,8,8,3,1.4446,2.4148,2,2.124,1,1.4476
4,1,9,9,3,1.0311,3.3443,2,2.2092,0,0.59866
4,1,10,10,3,0.96987,2.3206,3,1.7427,0,1.5247
4,1,11,11,3,0.79614,2.7305,2,1.4897,1,1.5101
4,1,12,12,3,1.2275,3.004,2,2.8024,0,1.8274
4,1,13,13,3,3.7952,2.2834,3,1.7272,0,1.5513
4,1,14,14,3,0.98574,2.633,3,3.0626,1,1.3245
4,1,15,15,3,0.70144,2.5446,2,2.763,1,1.375
4,1,16,16,3,0.96703,5.2061,1,2.591,1,2.3707
4,1,17,17,3,1.2937,2.9519,2,1.7014,0,2.2052
4,1,18,18,3,0.85021,2.6054,2,1.7929,0,2.1005
4,1,19,19,3,0.73911,2.4868,2,2.9665,0,1.4291
4,1,20,20,3,1.0435,3.3777,3,2.2227,1,2.0066
4,1,21,21,3,1.6315,2.3064,2,2.3578,0,1.4716
4,1,22,22,3,0.96707,2.9057,2,3.0677,1,0.99168
4,1,23,23,3,0.76869,3.5323,3,1.964,1,1.9044
4,1,24,24,3,2.3675,2.1325,2,1.6761,1,2.0621
4,1,25,25,3,1.6703,2.2703,3,2.1296,0,5.1143
4,1,26,26,3,1.0629,3.618,2,2.1986,1,2.5415
4,1,27,27,3,1.2429,3.5143,3,3.336,0,1.5013
4,1,28,28,3,1.5806,3.7559,2,3.6157,0,1.5759
4,1,29,29,3,2.3048,3.394,2,2.3218,0,1.2305
4,1,30,30,3,1.2965,3.1169,3,1.6494,1,2.4283
4,1,31,31,3,0.98921,2.7861,3,3.828,0,2.4825
4,1,32,32,3,2.0782,2.7509,3,2.8129,0,1.4509
4,1,33,33,3,0.72241,2.9504,3,1.6117,0,1.8912
4,1,34,34,3,0.84411,3.3162,3,0.82607,0,0.86701
4,1,35,35,3,0.81463,2.7213,2,1.5927,0,1.1747
4,1,36,36,3,0.85552,3.3744,3,1.2177,0,0.95532
4,1,37,37,3,3.1055,3.4409,3,1.1935,0,1.389
4,1,38,38,3,0.83285,2.9314,3,0.97485,0,0.83977
4,1,39,39,3,0.84774,2.8702,3,0.95317,0,0.53464
4,1,40,40,3,0.97664,2.8151,3,2.4354,1,2.1665
4,1,41,41,3,1.9238,3.4844,3,1.3283,1,1.567
4,1,42,42,3,2.4613,3.063,3,1.3118,0,0.65371
4,1,43,43,3,2.5932,3.1354,3,1.826,0,2.5377
4,1,44,44,3,0.87873,2.6935,3,1.1357,0,0.40674
4,1,45,45,3,0.79076,3.0014,3,0.98812,0,1.035
4,1,46,46,3,0.66676,2.6189,3,1.2656,0,0.54072
5,1,1,1,3,0.99977,2.5307,3,0.91485,0,1.9655
5,1,2,2,3,0.66227,2.1184,3,1.5794,0,1.091
5,1,3,3,3,0.8761,2.4662,3,1.362,1,1.1913
5,1,4,4,3,0.61348,3.8446,2,1.446,1,0.80427
5,1,5,5,3,1.1097,2.7519,3,1.1014,1,2.2316
5,1,6,6,3,0.78139,2.0087,3,0.79894,0,0.72931
5,1,7,7,3,0.51575,2.3554,3,0.76941,1,0.82075
5,1,8,8,3,0.41727,2.1203,3,1.3558,1,1.1978
5,1,9,9,3,0.53444,1.5463,3,1.2497,0,0.99221
5,1,10,10,3,0.38312,1.8203,3,0.74425,0,0.77948
5,1,11,11,3,0.38789,2.0629,3,0.99611,0,0.57682
5,1,12,12,3,0.45234,2.3838,3,0.92745,0,1.2535
5,1,13,13,3,0.49419,2.0667,3,0.92716,1,1.554
5,1,14,14,3,0.39424,1.5053,3,0.79693,0,0.76521
5,1,15,15,3,0.386,2.1859,3,0.71689,0,0.6063
5,1,16,16,3,0.45675,3.0013,3,5.6144,1,1.4932
5,1,17,17,3,0.43785,2.1738,3,2.834,0,2.2047
5,1,18,18,3,0.50595,2.6508,3,0.87624,0,0.76332
5,1,19,19,3,0.36134,1.9306,3,0.80098,0,0.90582
5,1,20,20,3,0.33239,1.8678,3,0.75417,1,0.52263
5,1,21,21,3,0.4158,2.0064,3,0.69554,0,0.76547
5,1,22,22,3,0.50735,2.3392,3,0.85743,0,0.43742
5,1,23,23,3,0.3013,1.7471,3,0.78701,0,0.62183
5,1,24,24,3,0.43079,1.7922,3,0.82473,0,1.1889
5,1,25,25,3,0.58,2.9336,3,0.53628,1,1.1979
5,1,26,26,3,0.49687,1.645,3,0.60214,0,0.52161
5,1,27,27,3,0.60631,1.9491,3,1.1276,0,0.85291
5,1,28,28,3,0.46136,2.919,2,0.86473,0,0.20273
5,1,29,29,3,0.40481,2.3617,2,0.71363,1,0.74064
5,1,30,30,3,0.78068,2.1197,3,0.68003,1,0.87784
5,1,31,31,3,0.34328,2.4919,3,0.90923,0,2.1018
5,1,32,32,3,1.1109,2.7651,2,0.92397,0,1.3264
5,1,33,33,3,0.33265,1.7566,3,1.2602,1,0.61479
5,1,34,34,3,0.4013,2.2211,3,1.5319,1,0.95182
5,1,35,35,3,0.29717,1.8052,3,0.93361,0,1.1431
5,1,36,36,3,0.32571,2.9159,2,1.5619,0,0.51485
5,1,37,37,3,0.35428,2.0867,2,2.1929,0,0.88566
5,1,38,38,3,0.35722,1.7527,3,0.93046,0,0.59014
5,1,39,39,3,0.46652,2.4063,2,1.1577,0,1.4377
5,1,40,40,3,0.38128,2.355,2,1.2443,0,0.88952
5,1,41,41,3,0.35655,1.8389,3,0.63304,0,0.6315
5,1,42,42,3,0.35694,1.9644,3,0.58762,1,0.79883
5,1,43,43,3,0.62411,2.2265,2,0.46142,0,0.60081
5,1,44,44,3,0.34721,1.3049,3,0.80943,0,0.63967
5,1,45,45,3,0.29589,2.4071,3,0.59631,0,0.48987
5,1,46,46,3,0.3577,2.5656,3,0.57388,1,0.55194
6,1,1,1,3,1.9721,3.1955,3,1.9613,0,2.626
6,1,2,2,3,3.043,4.4591,2,1.8916,1,0.5604
6,1,3,3,3,1.1973,4.1181,3,0.64758,0,1.8666
6,1,4,4,3,1.7144,3.5305,3,1.4612,0,1.7284
6,1,5,5,3,0.32623,4.0672,2,1.163,1,3.1638
6,1,6,6,3,1.8423,3.8239,2,0.49117,0,1.4904
6,1,7,7,3,1.773,3.5961,2,1.6855,0,2.2187
6,1,8,8,3,0.65673,2.839,2,0.85477,1,1.8607
6,1,9,9,3,0.5905,3.9012,2,1.36,1,0.88982
6,1,10,10,3,1.3425,3.0261,3,1.8722,0,1.4949
6,1,11,11,3,1.1717,3.4722,3,0.61667,1,3.6066
6,1,12,12,3,1.5267,3.2524,3,11.4,0,0.88319
6,1,13,13,3,0.71807,3.458,3,2.1685,0,1.6657
6,1,14,14,3,0.47876,1.9449,2,2.1882,0,0.70691
6,1,15,15,3,0.58294,1.7814,2,1.2142,0,0.31467
6,1,16,16,3,0.46286,3.0954,3,0.93521,0,0.64599
6,1,17,17,3,0.48753,3.0612,2,1.235,0,2.0442
6,1,18,18,3,0.72431,3.3006,3,1.078,1,0.21759
6,1,19,19,3,0.96907,3.1458,3,1.7485,0,1.1272
6,1,20,20,3,1.0821,2.9966,3,1.2128,1,0.43773
6,1,21,21,3,0.49792,3.2676,3,5.7238,0,1.1154
6,1,22,22,3,0.39522,2.6446,3,1.2618,0,0.39073
6,1,23,23,3,1.0087,4.489,2,1.4509,1,0.45443
6,1,24,24,3,0.68311,2.8315,3,1.3016,1,0.35598
6,1,25,25,3,0.46467,2.6931,3,0.7227,1,0.28681
6,1,26,26,3,0.48334,2.9202,2,0.92726,1,0.41716
6,1,27,27,3,0.62143,2.8609,2,1.3488,1,0.40263
6,1,28,28,3,0.47057,2.3352,3,0.82852,0,0.75034
6,1,29,29,3,1.4641,2.6546,3,1.1927,0,0.3893
6,1,30,30,3,0.64137,2.7891,3,0.51855,1,0.22126
6,1,31,31,3,0.38976,3.0632,2,2.1872,1,0.20582
6,1,32,32,3,0.55895,2.852,3,0.81422,1,0.42898
6,1,33,33,3,0.5273,2.9797,3,1.0625,1,0.21452
6,1,34,34,3,0.65715,3.4641,3,2.1121,0,0.5
6,1,35,35,3,0.46845,2.633,3,0.73817,0,0.62285
6,1,36,36,3,0.55894,2.9151,2,0.48509,0,0.37172
6,1,37,37,3,0.50532,3.124,2,0.48253,0,0.61803
6,1,38,38,3,0.4131,2.2209,2,1.3306,0,1.1142
6,1,39,39,3,0.4001,2.3194,2,0.66686,0,1.8807
6,1,40,40,3,0.4891,3.038,2,1.0416,1,0.5127
6,1,41,41,3,0.59071,3.5399,2,0.80368,0,1.0473
6,1,42,42,3,0.6879,2.9863,2,1.8138,0,0.45512
6,1,43,43,3,0.62506,2.6157,3,0.737,0,1.7341
6,1,44,44,3,0.45202,3.0595,3,1.5085,0,0.41267
6,1,45,45,3,0.65547,2.5988,2,1.8626,0,0.51539
6,1,46,46,3,0.46841,3.3464,2,1.6615,0,1.2388
7,1,1,1,3,2.1948,3.5007,2,2.9233,1,3.6817
7,1,2,2,3,4.0554,2.9431,2,5.7473,1,3.0931
7,1,3,3,3,1.2087,3.2527,3,2.1245,1,3.011
7,1,4,4,3,2.3,2.7942,2,2.3601,1,2.0244
7,1,5,5,3,1.382,4.0941,2,4.9947,1,4.017
7,1,6,6,3,1.9088,3.5117,3,1.2347,1,1.5686
7,1,7,7,3,1.3375,2.7331,3,2.0246,1,2.4856
7,1,8,8,3,1.671,3.5082,3,1.3684,0,2.0305
7,1,9,9,3,0.96974,2.7958,3,1.0249,1,2.2135
7,1,10,10,3,0.82606,3.3027,3,1.3516,1,1.1924
7,1,11,11,3,0.73554,3.3216,3,1.5273,0,2.6645
7,1,12,12,3,0.88342,2.6802,2,1.4637,0,1.8521
7,1,13,13,3,0.84012,3.5887,2,1.6774,1,0.96473
7,1,14,14,3,0.55151,3.3834,3,0.96086,1,1.0782
7,1,15,15,3,0.98092,3.9582,3,1.2793,0,1.1545
7,1,16,16,3,1.1468,3.2692,2,1.4515,0,4.8053
7,1,17,17,3,1.2099,2.2643,3,1.6487,1,1.8777
7,1,18,18,3,0.56006,2.9922,3,1.2951,0,1.2424
7,1,19,19,3,1.0233,3.1737,3,1.3808,1,0.68895
7,1,20,20,3,0.66614,3.7938,2,1.7077,1,2.2981
7,1,21,21,3,0.9824,3.1167,3,2.3418,0,3.3344
7,1,22,22,3,0.60827,3.4275,3,1.5961,0,1.3295
7,1,23,23,3,0.73756,2.9117,3,1.4729,1,1.0973
7,1,24,24,3,0.57141,2.5983,3,1.7416,0,1.611
7,1,25,25,3,1.0137,2.0805,2,1.2626,0,1.1171
7,1,26,26,3,0.86871,1.8581,2,1.0976,1,1.7532
7,1,27,27,3,0.5651,3.8552,2,1.414,1,0.92693
7,1,28,28,3,2.5864,2.7959,2,1.2737,0,0.87462
7,1,29,29,3,0.60791,3.3015,2,1.3371,0,1.4963
7,1,30,30,3,3.0298,2.713,3,1.25,0,1.154
7,1,31,31,3,0.98756,2.635,2,1.4019,1,6.2181
7,1,32,32,3,0.60501,3.6487,3,1.3003,1,1.8429
7,1,33,33,3,0.5744,3.4769,3,1.2707,1,1.6343
7,1,34,34,3,0.74117,2.3764,2,1.3483,1,2.0773
7,1,35,35,3,0.69122,2.2644,3,1.1992,1,1.9782
7,1,36,36,3,0.53813,3.662,3,1.7834,0,7.1535
7,1,37,37,3,0.54302,3.1767,2,1.3349,1,5.1936
7,1,38,38,3,0.61369,3.3709,3,1.1532,1,1.4705
7,1,39,39,3,0.3302,2.617,2,1.2762,1,0.81357
7,1,40,40,3,0.45839,2.878,3,1.073,0,2.0362
7,1,41,41,3,0.79546,2.6808,2,0.88921,0,1.5867
7,1,42,42,3,0.42601,3.6143,3,1.539,0,1.5711
7,1,43,43,3,0.33666,3.9741,3,0.99128,1,0.9381
7,1,44,44,3,0.69929,3.5431,2,1.833,1,0.81445
7,1,45,45,3,0.29291,3.7549,3,1.0641,1,1.0642
7,1,46,46,3,0.52104,2.7742,3,1.095,1,0.62937
8,1,1,1,3,2.6913,3.8209,3,1.4894,1,2.6728
8,1,2,2,3,1.7239,2.8605,2,1.4479,0,0.46386
8,1,3,3,3,1.3837,3.7302,3,3.8614,1,1.8708
8,1,4,4,3,1.3739,3.8863,2,1.6499,1,0.72748
8,1,5,5,3,0.40568,3.2497,3,1.3894,0,2.1482
8,1,6,6,3,2.7302,3.3638,3,2.4866,0,2.0167
8,1,7,7,3,2.1154,2.5925,3,0.85933,0,0.92741
8,1,8,8,3,1.5907,3.2486,2,1.1638,1,0.76428
8,1,9,9,3,1.8965,3.2407,2,1.669,1,0.66735
8,1,10,10,3,1.1316,3.3069,1,1.5302,0,1.9057
8,1,11,11,3,1.4784,3.9159,1,1.2752,1,0.32604
8,1,12,12,3,1.3081,3.4495,3,1.8136,1,1.3046
8,1,13,13,3,0.50618,2.7755,3,1.1458,1,0.96257
8,1,14,14,3,1.016,2.7295,3,0.93832,0,0.36026
8,1,15,15,3,0.95889,3.5019,2,0.75069,1,0.44328
8,1,16,16,3,0.93966,2.5869,2,0.8291,0,0.42664
8,1,17,17,3,0.89992,3.3807,3,0.97577,1,1.0514
8,1,18,18,3,1.4446,3.6161,3,2.9,0,2.4049
8,1,19,19,3,0.4933,3.4039,2,1.6151,1,2.3022
8,1,20,20,3,1.1026,3.4077,3,1.168,1,1.0808
8,1,21,21,3,1.5402,2.8738,3,1.1065,0,0.6854
8,1,22,22,3,0.83109,3.2822,2,2.2885,1,1.0571
8,1,23,23,3,1.3971,2.9803,2,1.4122,0,1.1165
8,1,24,24,3,1.5939,3.877,3,1.3945,0,1.6784
8,1,25,25,3,1.1473,2.993,3,1.1344,1,0.8184
8,1,26,26,3,1.3134,2.929,3,1.0128,0,0.56315
8,1,27,27,3,0.94562,2.7808,2,1.0137,1,0.39076
8,1,28,28,3,0.93638,3.7577,3,0.49246,1,0.66652
8,1,29,29,3,1.2421,2.6252,3,1.0475,0,0.87722
8,1,30,30,3,1.316,3.8076,1,0.74262,1,0.82746
8,1,31,31,3,1.3179,3.1809,2,0.9757,0,0.62665
8,1,32,32,3,1.4733,3.3094,3,0.74646,0,0.42765
8,1,33,33,3,1.313,2.9551,3,0.87962,1,0.27712
8,1,34,34,3,1.2349,3.3934,2,1.0459,0,0.4393
8,1,35,35,3,0.91509,2.7085,3,1.2707,0,0.47145
8,1,36,36,3,0.81964,2.9203,1,0.79093,0,0.40121
8,1,37,37,3,0.60997,2.5036,1,0.86622,1,1.4184
8,1,38,38,3,0.57805,3.1804,2,1.2751,1,1.5248
8,1,39,39,3,0.27514,2.6277,1,1.012,1,1.1551
8,1,40,40,3,1.0202,3.4348,3,1.3619,0,1.3286
8,1,41,41,3,0.53427,3.02,3,1.2649,1,1.6157
8,1,42,42,3,0.89282,3.1899,3,1.5814,1,1.2518
8,1,43,43,3,0.69867,3.0671,1,0.67475,0,1.5259
8,1,44,44,3,4.875,4.056,1,1.227,1,1.2398
8,1,45,45,3,1.1427,3.2144,2,1.0879,1,0.95935
8,1,46,46,3,1.6174,2.9659,2,1.3859,1,0.78258
9,1,1,1,3,1.4195,2.0318,2,2.9249,0,7.3717
9,1,2,2,3,1.3472,2.5937,3,1.4357,0,2.256
9,1,3,3,3,1.3559,1.9842,3,3.6042,0,2.2638
9,1,4,4,3,0.94333,2.5664,1,1.3503,1,1.1046
9,1,5,5,3,1.0241,2.4124,2,1.3144,1,1.2273
9,1,6,6,3,1.0696,2.7455,2,1.2632,1,0.68873
9,1,7,7,3,2.0893,2.384,3,1.1755,0,1.5897
9,1,8,8,3,0.7691,2.6717,2,1.3552,0,2.0712
9,1,9,9,3,0.6848,2.4833,3,1.0005,0,1.743
9,1,10,10,3,0.55643,2.9636,3,0.87485,0,1.2517
9,1,11,11,3,1.9426,2.9004,3,1.0865,0,1.1586
9,1,12,12,3,0.87878,3.3565,2,0.97911,1,0.87586
9,1,13,13,3,0.57055,3.1115,2,0.85995,1,2.2031
9,1,14,14,3,0.99731,3.0568,1,2.5308,0,1.2775
9,1,15,15,3,0.46702,3.4822,2,0.78825,1,1.7488
9,1,16,16,3,2.5914,3.3336,3,1.0032,0,0.858
9,1,17,17,3,0.90977,3.5661,3,1.4135,1,3.3012
9,1,18,18,3,2.7849,3.5061,2,1.2662,0,1.9663
9,1,19,19,3,2.0626,3.2015,2,1.1752,0,1.1384
9,1,20,20,3,0.96628,3.1553,3,0.79137,0,0.95276
9,1,21,21,3,1.3856,3.1571,2,0.93067,0,0.90332
9,1,22,22,3,1.2771,2.94,1,2.6811,0,2.3262
9,1,23,23,3,0.13054,0.71759,1,5.0453,0,0.98029
9,1,24,24,3,5.1945,3.3326,3,1.7514,0,1.3681
9,1,25,25,3,1.3781,2.7655,3,1.2615,0,0.97882
9,1,26,26,3,1.3487,3.4447,1,1.7594,1,1.3753
9,1,27,27,3,3.6477,2.9234,2,1.6443,1,3.2016
9,1,28,28,3,1.5976,3.4804,3,2.8494,0,1.0153
9,1,29,29,3,1.5536,3.6077,3,1.0929,0,4.277
9,1,30,30,3,1.2144,3.457,3,1.2544,0,1.3348
9,1,31,31,3,3.2873,3.5312,3,1.7759,1,0.92373
9,1,32,32,3,2.1939,3.3239,3,1.7311,0,2.1887
9,1,33,33,3,1.9223,3.2336,2,2.327,0,1.1244
9,1,34,34,3,1.4977,3.4054,2,1.5288,0,0.60344
9,1,35,35,3,3.0146,3.1388,3,0.91706,0,0.73106
9,1,36,36,3,1.4626,2.9273,2,1.4748,0,0.88637
9,1,37,37,3,2.0103,3.613,2,1.1727,1,3.586
9,1,38,38,3,1.8697,3.8797,2,0.88574,1,0.60694
9,1,39,39,3,2.1649,3.3803,3,0.88667,1,0.75793
9,1,40,40,3,1.3745,3.4749,1,1.4558,0,0.75999
9,1,41,41,3,1.0298,2.9553,2,1.155,1,2.0342
9,1,42,42,3,0.96784,3.6198,1,1.6375,1,0.9079
9,1,43,43,3,1.0457,3.6044,2,1.4276,1,1.4758
9,1,44,44,3,2.2679,3.0319,2,1.7762,1,0.88785
9,1,45,45,3,1.6466,3.0542,2,1.3536,1,0.90801
9,1,46,46,3,0.78574,3.2469,1,1.1246,1,1.1248
10,1,1,1,3,0.49276,2.8786,2,2.0994,1,2.739
10,1,2,2,3,3.4432,3.4951,3,2.9223,0,2.0418
10,1,3,3,3,2.0758,3.2875,2,2.64,1,1.282
10,1,4,4,3,1.4871,3.6078,2,2.3676,0,0.82834
10,1,5,5,3,1.4314,3.9312,2,4.1489,0,2.2616
10,1,6,6,3,2.2319,3.8799,2,2.4466,1,3.2268
10,1,7,7,3,1.2974,2.8055,3,1.7547,0,1.5579
10,1,8,8,3,0.95904,3.4778,3,1.7344,0,1.1038
10,1,9,9,3,0.76992,3.1708,2,1.6409,0,1.2106
10,1,10,10,3,1.0294,2.8673,3,1.95,1,0.91565
10,1,11,11,3,0.82402,3.2761,3,2.719,0,1.1031
10,1,12,12,3,2.6063,4.2808,1,1.1222,1,2.1354
10,1,13,13,3,0.72991,2.8192,2,1.4146,0,1.8912
10,1,14,14,3,0.57366,3.4755,2,1.5456,1,0.78998
10,1,15,15,3,0.83082,2.446,3,1.9634,0,0.9408
10,1,16,16,3,0.96034,2.6157,3,3.0752,0,2.1327
10,1,17,17,3,0.78473,3.3334,2,1.2906,1,1.8489
10,1,18,18,3,0.83919,2.7495,1,0.98711,1,1.3843
10,1,19,19,3,0.6113,2.7172,2,2.1259,0,1.3618
10,1,20,20,3,1.58,2.706,2,1.3302,0,1.0144
10,1,21,21,3,1.9047,3.5198,1,1.0274,1,1.027
10,1,22,22,3,0.76796,2.3318,2,1.05,0,1.4792
10,1,23,23,3,0.64875,3.1174,3,0.88755,1,1.1842
10,1,24,24,3,0.80344,3.0095,3,1.6593,0,1.4746
10,1,25,25,3,1.9773,3.0753,1,1.6334,0,0.71559
10,1,26,26,3,1.5484,3.0189,1,1.0381,0,2.7855
10,1,27,27,3,1.0232,3.324,3,1.2926,0,1.3526
10,1,28,28,3,0.72975,3.0699,2,1.2274,1,0.67801
10,1,29,29,3,0.62815,3.3305,3,1.487,0,0.90855
10,1,30,30,3,0.50752,2.9265,2,1.047,1,1.0405
10,1,31,31,3,0.52263,3.225,2,1.5198,0,1.0449
10,1,32,32,3,0.57773,2.781,3,2.213,0,1.2402
10,1,33,33,3,4.4602,2.73,1,1.3383,0,0.72207
10,1,34,34,3,0.62694,3.0534,3,1.3031,0,0.93246
10,1,35,35,3,0.61846,2.9459,2,1.0613,1,0.66615
10,1,36,36,3,0.44942,3.0691,2,1.3395,0,1.5097
10,1,37,37,3,0.63272,3.1053,3,1.8556,0,2.3701
10,1,38,38,3,1.4711,3.2468,1,1.6745,1,0.98605
10,1,39,39,3,0.71738,3.2197,2,2.5644,0,0.58949
10,1,40,40,3,0.67004,3.0225,1,0.96779,1,1.5436
10,1,41,41,3,0.58327,3.5436,3,1.1711,0,0.6086
10,1,42,42,3,1.0122,3.0805,1,0.76314,1,1.0031
10,1,43,43,3,0.55777,3.0771,2,1.2854,0,0.58057
10,1,44,44,3,1.0265,3.0522,2,1.6779,0,1.0269
10,1,45,45,3,0.65842,2.8515,1,3.0519,1,1.0008
10,1,46,46,3,0.65651,2.9134,3,1.0514,0,2.3176
11,1,1,1,3,0.34128,2.7031,2,4.0291,0,2.1573
11,1,2,2,3,1.3028,2.6816,3,1.7611,0,2.1025
11,1,3,3,3,1.614,2.8552,1,3.4054,0,1.0032
11,1,4,4,3,1.0976,2.5311,2,1.5273,0,1.3264
11,1,5,5,3,0.81658,3.0314,2,1.9012,1,1.2165
11,1,6,6,3,1.498,2.9438,3,1.2841,0,1.3677
11,1,7,7,3,0.65737,3.8379,2,3.1766,1,0.65814
11,1,8,8,3,0.74011,2.6369,2,1.3796,1,5.1555
11,1,9,9,3,0.92893,3.2059,3,1.5291,1,6.8298
11,1,10,10,3,0.82327,2.7503,3,1.7004,1,2.7046
11,1,11,11,3,0.94384,3.5395,2,2.205,1,1.6955
11,1,12,12,3,0.68715,3.0471,3,1.3368,0,0.84603
11,1,13,13,3,0.41501,2.8045,3,1.1928,0,1.8267
11,1,14,14,3,0.35283,3.185,2,0.85043,1,8.7573
11,1,15,15,3,0.37548,3.4151,2,0.9017,1,1.5312
11,1,16,16,3,1.2206,3.6215,3,1.3389,0,1.011
11,1,17,17,3,0.72614,2.7907,2,5.3082,0,1.8496
11,1,18,18,3,0.93551,3.0575,3,0.93163,0,1.3166
11,1,19,19,3,1.0428,3.1275,2,1.0972,1,2.3394
11,1,20,20,3,1.0427,3.1773,3,1.0597,1,1.802
11,1,21,21,3,0.98358,2.5171,3,1.7772,1,1.5385
11,1,22,22,3,0.48538,2.909,1,3.0835,0,1.0904
11,1,23,23,3,0.80539,3.2994,3,1.9879,0,1.0951
11,1,24,24,3,0.75517,3.2989,2,18.128,1,1.1281
11,1,25,25,3,0.7192,3.196,2,1.5609,1,0.97697
11,1,26,26,3,0.61814,3.3453,2,1.511,1,0.25179
11,1,27,27,3,0.67042,2.8725,2,13.119,1,1.2413
11,1,28,28,3,0.71505,2.7041,2,3.6671,0,0.7648
11,1,29,29,3,1.3992,3.1321,3,2.4528,1,1.179
11,1,30,30,3,1.2639,3.1687,3,2.0004,0,0.97884
11,1,31,31,3,0.804,2.9608,3,7.8608,1,1.661
11,1,32,32,3,0.84283,2.8532,2,2.0785,0,0.21225
11,1,33,33,3,0.76124,3.0294,3,1.6999,1,1.1898
11,1,34,34,3,0.90223,3.3705,2,2.5023,0,0.56535
11,1,35,35,3,0.76875,3.0197,3,2.7033,1,10.866
11,1,36,36,3,0.99758,2.8321,3,1.5485,1,1.0401
11,1,37,37,3,0.90535,2.6732,3,2.7695,1,0.40347
11,1,38,38,3,0.89547,2.9571,3,2.7183,1,1.439
11,1,39,39,3,0.93562,2.683,3,3.2618,1,0.58523
11,1,40,40,3,0.95486,3.0618,3,8.2983,1,1.0013
11,1,41,41,3,0.92435,2.839,3,2.905,0,1.2421
11,1,42,42,3,0.68294,2.7054,2,1.6561,0,1.8097
11,1,43,43,3,1.0805,2.9203,3,1.5653,1,0.8276
11,1,44,44,3,0.75978,3.0159,2,9.1493,0,2.8144
11,1,45,45,3,0.80903,3.1276,3,1.4468,1,0.32506
11,1,46,46,3,0.85554,2.7982,3,1.4782,0,1.003
12,1,1,1,3,1.364,3.2308,2,1.5879,0,2.0578
12,1,2,2,3,1.5597,3.439,3,1.6784,1,1.4526
12,1,3,3,3,1.9308,3.5288,1,1.3103,1,1.3523
12,1,4,4,3,2.0419,3.2854,2,1.7513,1,1.5923
12,1,5,5,3,1.5642,3.5424,1,1.0453,1,2.1913
12,1,6,6,3,2.0029,4.7178,1,1.9881,1,1.0566
12,1,7,7,3,1.351,3.0925,3,1.7075,0,0.87342
12,1,8,8,3,1.7553,3.3575,3,1.7194,1,0.86746
12,1,9,9,3,1.304,3.1839,2,1.2733,0,0.87448
12,1,10,10,3,1.2143,3.0187,2,1.7893,0,0.83383
12,1,11,11,3,1.7126,3.2919,3,1.2195,1,1.1067
12,1,12,12,3,1.2418,3.3759,2,1.5066,1,1.0739
12,1,13,13,3,2.2949,2.9007,3,1.4132,1,1.9797
12,1,14,14,3,2.8193,2.7319,2,1.2905,0,0.78645
12,1,15,15,3,1.7817,3.1434,2,1.5209,1,0.87116
12,1,16,16,3,3.0186,2.7426,2,2.0232,0,0.72034
12,1,17,17,3,2.1488,3.6804,2,1.711,1,0.96271
12,1,18,18,3,2.0544,3.2441,3,2.5592,0,0.8985
12,1,19,19,3,3.2974,2.6628,2,1.5385,0,0.55886
12,1,20,20,3,2.1158,3.2169,3,1.7865,1,1.382
12,1,21,21,3,1.8103,3.2374,1,1.6533,0,2.7692
12,1,22,22,3,1.6331,2.7942,1,2.2617,0,0.87474
12,1,23,23,3,2.6028,3.6202,2,1.9389,1,2.4581
12,1,24,24,3,1.3477,3.4941,2,1.7081,0,0.82354
12,1,25,25,3,1.8172,2.9081,2,3.5695,0,4.4428
12,1,26,26,3,1.7013,3.066,3,2.3528,1,1.2544
12,1,27,27,3,0.82881,2.6676,3,2.1257,0,1.2985
12,1,28,28,3,0.86877,3.2078,2,1.357,0,0.7113
12,1,29,29,3,1.008,3.0253,3,1.7585,1,0.64861
12,1,30,30,3,1.5848,2.6173,2,4.9138,0,0.9075
12,1,31,31,3,1.6196,2.7948,3,3.5615,0,1.6964
12,1,32,32,3,1.0159,2.7918,2,1.4199,0,0.50838
12,1,33,33,3,1.5089,3.1753,3,1.1208,1,0.80838
12,1,34,34,3,1.2513,3.0302,1,1.8253,1,0.86218
12,1,35,35,3,0.81,4.0159,1,1.4502,1,0.87914
12,1,36,36,3,2.6043,2.8038,2,1.4412,1,0.25028
12,1,37,37,3,0.80257,3.4584,3,1.5316,0,0.95129
12,1,38,38,3,0.085793,3.4845,1,1.0243,0,1.551
12,1,39,39,3,1.0338,2.7298,2,1.339,0,0.46025
12,1,40,40,3,1.5022,2.968,2,1.3005,1,0.50478
12,1,41,41,3,1.494,2.8023,3,1.3649,1,1.2018
12,1,42,42,3,2.2866,2.8545,3,1.392,1,1.4503
12,1,43,43,3,1.3687,2.8697,2,1.6274,0,0.78828
12,1,44,44,3,1.6637,3.1282,1,1.7376,0,1.2814
12,1,45,45,3,0.71579,2.9557,2,1.3922,0,0.52546
12,1,46,46,3,1.5573,3.0114,3,1.4733,1,2.2858
13,1,1,1,6,1.3139,7.1555,3,3.3092,0,2.5576
13,1,2,2,6,1.1815,6.6437,2,2.7157,0,3.3415
13,1,3,3,6,0.64644,8.1569,3,1.5448,1,1.2762
13,1,4,4,6,1.0754,6.6398,2,1.7738,1,2.0605
13,1,5,5,6,0.70516,5.2366,2,4.8752,0,0.71516
13,1,6,6,6,1.5439,5.9507,3,1.2211,0,2.7836
13,1,7,7,6,0.59063,5.5261,3,1.4141,0,1.6643
13,1,8,8,6,2.1887,3.7945,2,1.2338,0,2.2426
13,1,9,9,6,0.82909,5.5937,3,2.2892,0,1.4441
13,1,10,10,6,0.89092,6.1267,2,2.2878,0,4.0055
13,1,11,11,6,1.0588,6.7394,1,1.6363,1,1.5187
13,1,12,12,6,0.61525,4.4295,2,2.2702,1,2.0927
13,1,13,13,6,1.095,10.229,1,2.4826,1,1.2537
13,1,14,14,6,0.8966,4.657,3,2.5261,0,1.8364
13,1,15,15,6,2.0708,7.8941,2,3.349,1,1.0145
13,1,16,16,6,1.0771,3.9652,3,2.074,0,1.6474
13,1,17,17,6,2.6716,16.106,1,1.5242,1,1.3244
13,1,18,18,6,1.2766,3.077,3,1.6224,1,1.484
13,1,19,19,6,1.5247,4.1611,3,1.982,1,4.0262
13,1,20,20,6,1.2443,3.6289,2,1.2347,0,0.93006
13,1,21,21,6,1.6234,3.1729,3,1.3918,0,1.9132
13,1,22,22,6,0.68618,4.0972,2,1.3229,1,1.0357
13,1,23,23,6,1.2571,4.4617,1,3.4822,0,1.7375
13,1,24,24,6,1.5475,4.78,2,1.8948,0,1.3266
13,1,25,25,6,1.0664,6.0681,3,1.5451,1,1.1401
13,1,26,26,6,0.70808,6.7896,2,1.3362,0,1.3076
13,1,27,27,6,0.82651,5.2024,3,2.1495,1,1.1894
13,1,28,28,6,4.0555,6.0813,1,1.4426,1,4.3258
13,1,29,29,6,1.4022,5.3063,3,2.3241,0,3.7593
13,1,30,30,6,0.86378,8.1698,1,1.4407,1,2.4994
13,1,31,31,6,1.4019,5.5187,2,1.2233,0,0.97375
13,1,32,32,6,0.85884,5.3393,2,1.7779,0,1.0015
13,1,33,33,6,1.2368,4.6589,3,1.9151,0,1.4515
13,1,34,34,6,0.77515,5.3638,2,2.4818,0,1.9279
13,1,35,35,6,1.279,5.0039,3,2.2899,1,1.0577
13,1,36,36,6,0.84531,5.0924,2,1.8778,1,1.0263
13,1,37,37,6,0.76218,7.1179,3,1.6544,1,1.8701
13,1,38,38,6,0.82694,4.5648,2,2.2475,0,1.7047
13,1,39,39,6,1.0509,6.4932,2,1.7486,1,1.639
13,1,40,40,6,1.2816,5.1944,3,1.2789,0,1.266
13,1,41,41,6,0.54117,10.139,1,2.1395,1,1.3448
13,1,42,42,6,0.93052,5.0811,3,0.9452,0,1.3308
13,1,43,43,6,0.77395,4.9137,2,1.7202,1,2.6442
13,1,44,44,6,1.1011,5.645,2,1.6527,1,0.96898
13,1,45,45,6,0.76849,4.8084,3,1.2892,1,1.3973
13,1,46,46,6,1.008,3.8002,3,1.0762,0,0.5017
14,1,1,1,6,0.83321,6.2566,2,3.6,1,1.25
14,1,2,2,6,0.68949,5.45,3,1.7466,0,1.9033
14,1,3,3,6,0.68754,5.6111,3,1.4027,0,4.3688
14,1,4,4,6,0.60294,3.7712,3,1.4642,1,7.4644
14,1,5,5,6,0.49671,6.4331,3,1.4186,1,1.793
14,1,6,6,6,0.57708,6.117,2,1.144,0,1.4415
14,1,7,7,6,0.53804,4.6864,3,0.97544,0,2.1287
14,1,8,8,6,0.77921,5.1057,3,1.3906,1,1.149
14,1,9,9,6,0.47244,4.425,3,1.1407,1,1.4259
14,1,10,10,6,0.55452,4.7741,2,2.0642,0,1.4538
14,1,11,11,6,0.56306,3.8827,3,1.125,0,1.651
14,1,12,12,6,0.4733,5.3254,3,0.91461,1,1.6156
14,1,13,13,6,0.64138,3.9023,3,1.0238,1,1.1626
14,1,14,14,6,0.43268,5.1189,3,0.89865,1,1.2421
14,1,15,15,6,0.60164,5.0585,2,1.2521,0,0.89316
14,1,16,16,6,0.56579,6.1926,2,2.1868,1,0.94356
14,1,17,17,6,0.44671,5.07,3,0.90059,1,1.1821
14,1,18,18,6,0.48115,5.9793,2,1.7785,1,1.4379
14,1,19,19,6,0.50029,5.0827,3,1.2337,0,0.89318
14,1,20,20,6,0.57498,4.8271,3,1.7298,1,1.0415
14,1,21,21,6,0.47767,5.6809,3,1.5921,0,1.0257
14,1,22,22,6,0.49941,5.1811,3,1.1195,1,1.4088
14,1,23,23,6,0.48541,5.7224,3,0.85014,0,1.3189
14,1,24,24,6,0.41214,5.6442,2,2.0018,0,1.4046
14,1,25,25,6,0.58554,3.4082,3,1.1697,1,2.0077
14,1,26,26,6,0.51202,5.106,2,1.0866,1,1.2596
14,1,27,27,6,0.51111,5.0183,3,1.7116,1,0.61394
14,1,28,28,6,0.61137,6.1419,2,1.5905,1,0.71132
14,1,29,29,6,0.59358,5.6792,3,1.5538,0,1.1332
14,1,30,30,6,0.5188,6.0719,3,1.3625,1,1.604
14,1,31,31,6,0.59284,6.5659,3,2.2175,0,1.3534
14,1,32,32,6,0.59568,5.8813,3,5.5935,1,4.8892
14,1,33,33,6,0.53005,7.3825,2,1.4772,0,0.68894
14,1,34,34,6,0.51446,6.6424,3,1.2384,0,2.6863
14,1,35,35,6,0.46255,5.8958,3,1.8155,1,0.67612
14,1,36,36,6,0.60138,4.6203,2,0.97798,1,0.69109
14,1,37,37,6,0.56994,5.8604,2,0.91388,0,0.96524
14,1,38,38,6,0.51089,6.0424,2,1.2861,1,1.332
14,1,39,39,6,0.42702,6.2057,3,0.96201,1,0.71271
14,1,40,40,6,0.57871,6.7944,3,0.96167,1,0.68002
14,1,41,41,6,0.57961,7.2203,3,2.7313,0,0.75259
14,1,42,42,6,0.4813,4.7549,2,1.5858,0,1.6687
14,1,43,43,6,0.45205,5.759,3,1.5133,1,1.7249
14,1,44,44,6,0.50072,5.6573,2,1.6162,0,1.1527
14,1,45,45,6,0.53922,6.1124,2,1.0652,0,1.678
14,1,46,46,6,0.39171,6.6909,2,1.3747,1,0.58721
15,1,1,1,6,1.5559,5.3338,3,1.8844,0,5.1923
15,1,2,2,6,1.9606,5.6133,3,1.8307,1,1.6917
15,1,3,3,6,1.4938,6.2511,3,4.7326,0,3.2604
15,1,4,4,6,2.055,5.4186,3,4.4117,0,2.5447
15,1,5,5,6,1.5986,6.2436,3,2.4506,1,1.7142
15,1,6,6,6,1.1772,5.7909,3,1.2654,0,3.0029
15,1,7,7,6,1.7576,5.5356,3,3.5232,0,1.6921
15,1,8,8,6,1.0874,5.948,3,1.0542,0,2.5606
15,1,9,9,6,2.0399,6.1835,3,1.1073,1,0.86294
15,1,10,10,6,1.2199,6.4206,3,1.6212,1,2.0091
15,1,11,11,6,1.1631,5.5434,3,1.0522,1,0.86937
15,1,12,12,6,0.97683,5.7031,3,0.93667,1,2.7711
15,1,13,13,6,3.842,6.2438,2,5.0374,0,5.2641
15,1,14,14,6,0.65034,5.4695,2,4.212,0,1.8572
15,1,15,15,6,1.7327,5.8943,3,1.2633,1,1.8257
15,1,16,16,6,1.3057,5.7978,3,1.1179,0,2.2067
15,1,17,17,6,0.74696,5.708,3,1.0121,1,0.81739
15,1,18,18,6,0.85982,6.0664,3,1.6938,1,0.97623
15,1,19,19,6,0.8418,6.1529,3,1.0465,1,1.2634
15,1,20,20,6,0.7535,5.7352,3,2.0092,0,0.99941
15,1,21,21,6,0.74708,5.2829,2,1.2585,1,1.2012
15,1,22,22,6,0.62218,5.5993,3,1.6336,0,1.7033
15,1,23,23,6,0.85436,6.2222,3,1.4245,1,1.5619
15,1,24,24,6,0.78416,6.0454,3,0.93922,1,0.54903
15,1,25,25,6,0.5992,5.8939,3,1.264,1,0.50104
15,1,26,26,6,1.4515,5.2555,2,1.8645,0,0.91703
15,1,27,27,6,0.70308,5.5976,3,1.1428,1,0.48895
15,1,28,28,6,2.4399,6.3448,3,1.6889,1,0.73333
15,1,29,29,6,1.3506,5.9797,3,1.1786,1,1.642
15,1,30,30,6,0.85601,5.6233,3,1.1856,1,2.2821
15,1,31,31,6,0.67479,5.7518,3,1.1604,0,0.53849
15,1,32,32,6,0.66053,6.9173,2,3.529,1,2.936
15,1,33,33,6,0.82946,5.6689,3,1.3359,0,1.1439
15,1,34,34,6,0.76843,2.8201,1,2.753,0,1.1034
15,1,35,35,6,1.4387,6.435,3,1.3072,1,0.99891
15,1,36,36,6,0.99439,5.8165,3,0.80772,1,1.8012
15,1,37,37,6,0.81398,6.6579,3,1.2377,1,1.3595
15,1,38,38,6,1.0895,5.6616,2,1.1271,1,0.71494
15,1,39,39,6,1.6638,5.4803,3,1.455,1,0.80918
15,1,40,40,6,1.2148,5.1942,2,0.97939,0,0.70057
15,1,41,41,6,0.72108,6.8613,2,1.4234,1,0.37288
15,1,42,42,6,1.3238,5.8234,2,1.1763,0,1.3275
15,1,43,43,6,1.5192,5.0553,2,0.89961,0,0.71704
15,1,44,44,6,1.2558,5.4115,3,1.403,0,1.9691
15,1,45,45,6,0.93556,5.6701,3,1.2241,1,0.63772
15,1,46,46,6,1.2765,5.5153,2,1.1188,1,0.85756
16,1,1,1,6,1.0215,5.96,2,1.2754,0,1.2751
16,1,2,2,6,1.4235,6.4363,3,2.7331,1,1.3662
16,1,3,3,6,0.91301,6.2066,3,4.4255,0,4.0796
16,1,4,4,6,1.123,5.2372,2,2.1999,0,1.6013
16,1,5,5,6,0.90975,5.6397,2,3.1854,0,2.2012
16,1,6,6,6,0.77739,6.9537,1,4.2958,0,2.9202
16,1,7,7,6,0.89998,6.7558,3,1.1354,1,1.0077
16,1,8,8,6,0.88952,5.9754,2,2.5487,1,1.2906
16,1,9,9,6,1.0078,3.2998,1,2.0766,0,1.0506
16,1,10,10,6,0.63131,5.8168,2,1.4579,0,1.1118
16,1,11,11,6,0.8608,6.4175,3,2.6563,1,1.5697
16,1,12,12,6,2.6157,6.6776,1,1.7885,0,1.2454
16,1,13,13,6,0.5191,5.7586,2,2.3122,0,1.0889
16,1,14,14,6,0.9791,6.0057,2,2.9868,1,1.3657
16,1,15,15,6,0.73334,5.3937,1,1.903,0,0.94336
16,1,16,16,6,1.0205,5.11,2,2.5782,1,2.2739
16,1,17,17,6,0.56871,6.4103,2,2.4487,1,0.32831
16,1,18,18,6,0.65231,5.0346,3,1.7351,0,0.96776
16,1,19,19,6,0.96228,5.6555,3,2.1516,1,0.72811
16,1,20,20,6,0.58029,6.2836,3,1.2694,0,1.3568
16,1,21,21,6,0.62594,6.1652,3,1.2935,0,1.0383
16,1,22,22,6,0.52898,6.1204,2,1.385,1,1.0435
16,1,23,23,6,0.50355,5.8609,2,2.3132,0,1.2392
16,1,24,24,6,0.4313,5.9048,2,1.8367,0,0.85671
16,1,25,25,6,1.2687,4.3937,1,2.2688,0,0.97811
16,1,26,26,6,0.54472,6.0301,2,1.9039,0,0.93178
16,1,27,27,6,0.5307,7.3282,1,3.1397,1,1.1314
16,1,28,28,6,0.43032,5.3912,2,2.4129,0,1.2389
16,1,29,29,6,1.1908,6.3999,1,1.4055,0,0.2464
16,1,30,30,6,0.59831,6.1554,2,1.6996,1,0.88998
16,1,31,31,6,0.6658,6.4932,2,2.0109,0,1.3258
16,1,32,32,6,0.48477,6.171,2,3.0355,1,1.5013
16,1,33,33,6,0.47371,6.176,1,2.5376,0,1.0675
16,1,34,34,6,0.42921,6.2826,2,2.0061,1,1.4076
16,1,35,35,6,0.99644,6.4197,3,2.5953,0,4.4132
16,1,36,36,6,0.78051,6.4328,3,2.0432,1,0.87412
16,1,37,37,6,0.70468,5.8356,2,1.9598,1,0.46281
16,1,38,38,6,0.49149,6.1768,3,1.6387,0,0.27051
16,1,39,39,6,0.6097,6.078,2,13.853,0,1.903
16,1,40,40,6,1.0949,6.192,1,1.4031,1,0.59436
16,1,41,41,6,0.61394,6.3952,3,1.3398,0,1.1724
16,1,42,42,6,1.0205,6.4095,2,2.1615,0,1.463
16,1,43,43,6,0.57661,6.8422,3,1.2141,0,1.4143
16,1,44,44,6,0.71466,6.3169,3,1.6561,0,0.29807
16,1,45,45,6,0.34011,7.1511,2,2.0307,0,1.478
16,1,46,46,6,0.36275,6.1583,3,1.5397,0,0.52165
17,1,1,1,6,2.5892,4.8564,2,3.9875,0,2.3006
17,1,2,2,6,2.2532,6.1925,1,5.7777,1,1.4522
17,1,3,3,6,2.0229,7.346,1,3.0785,1,2.4984
17,1,4,4,6,1.9385,4.9575,3,2.9256,1,1.5845
17,1,5,5,6,1.0315,5.4579,2,2.674,0,1.8579
17,1,6,6,6,1.0047,5.7107,2,1.8896,1,2.9086
17,1,7,7,6,1.4873,6.4951,2,2.5013,0,3.3139
17,1,8,8,6,0.92647,6.0022,1,1.6348,0,2.6183
17,1,9,9,6,0.76889,4.3836,3,3.4994,0,1.3883
17,1,10,10,6,1.0359,6.8577,1,1.9496,0,1.0899
17,1,11,11,6,0.73343,5.9306,3,1.3425,1,1.8009
17,1,12,12,6,0.63787,3.9364,3,2.1616,1,3.5018
17,1,13,13,6,0.78437,5.8186,2,1.3225,1,1.0599
17,1,14,14,6,1.6098,6.4379,1,1.7224,0,1.0963
17,1,15,15,6,1.1286,6.7045,1,1.7839,1,0.89206
17,1,16,16,6,1.0202,4.6596,3,1.5287,1,0.8161
17,1,17,17,6,0.81696,5.268,2,1.6487,0,1.6391
17,1,18,18,6,0.94989,4.7681,2,1.9497,1,1.1016
17,1,19,19,6,1.0778,5.829,1,2.6032,1,1.9168
17,1,20,20,6,0.74873,5.3802,3,2.906,1,1.7548
17,1,21,21,6,0.59956,5.6443,2,1.6399,1,1.0588
17,1,22,22,6,0.64925,4.6684,1,1.7006,1,0.72835
17,1,23,23,6,0.081754,4.9439,1,1.2791,1,0.67924
17,1,24,24,6,1.1379,5.7854,2,1.472,1,0.85954
17,1,25,25,6,0.88307,6.7305,1,1.7398,1,0.7348
17,1,26,26,6,0.57864,5.1071,2,2.1881,0,0.95634
17,1,27,27,6,0.87956,5.6307,1,1.6561,1,0.59738
17,1,28,28,6,0.71961,5.0103,3,1.365,0,2.2775
17,1,29,29,6,0.67681,7.5904,1,1.623,1,0.54859
17,1,30,30,6,1.7427,6.1994,2,1.156,1,2.3489
17,1,31,31,6,0.99472,4.8787,1,1.5808,0,0.63872
17,1,32,32,6,0.66601,5.1555,2,2.8651,1,0.91438
17,1,33,33,6,1.0892,5.224,3,0.93766,0,1.6098
17,1,34,34,6,0.78181,4.6164,3,1.1982,0,0.97894
17,1,35,35,6,0.70597,7.8868,1,1.5677,1,0.53007
17,1,36,36,6,1.3141,4.1185,2,1.3762,1,0.67654
17,1,37,37,6,1.1925,5.3018,3,1.9992,0,0.61364
17,1,38,38,6,0.69775,4.6075,1,1.8402,1,0.84709
17,1,39,39,6,1.4157,4.9448,2,1.7548,1,0.63312
17,1,40,40,6,0.7738,5.4385,1,1.889,0,1.0335
17,1,41,41,6,0.97271,4.9365,3,1.4752,1,1.3884
17,1,42,42,6,1.1736,4.837,3,2.2897,1,0.69486
17,1,43,43,6,0.53292,4.1562,1,1.977,1,0.81354
17,1,44,44,6,5.7761,6.2678,1,1.3698,1,0.55671
17,1,45,45,6,2.0109,5.1885,1,2.3636,1,0.70405
17,1,46,46,6,0.89445,6.4538,2,1.3974,1,0.9141
18,1,1,1,6,2.3446,6.0378,2,2.2243,0,2.6222
18,1,2,2,6,1.1272,3.8404,3,2.9175,0,2.4044
18,1,3,3,6,0.50599,5.7004,2,3.0083,0,2.1957
18,1,4,4,6,1.054,5.6959,1,1.7169,1,2.691
18,1,5,5,6,1.8397,5.5224,3,3.0022,1,1.4007
18,1,6,6,6,0.4449,3.8191,2,2.0862,1,1.3172
18,1,7,7,6,1.5797,5.6916,2,1.9873,1,2.506
18,1,8,8,6,1.2075,4.4243,3,1.953,0,3.0796
18,1,9,9,6,0.82961,5.1431,3,2.4534,1,0.89139
18,1,10,10,6,1.0527,5.6085,3,1.5756,1,1.6372
18,1,11,11,6,0.66788,6.2578,3,1.8633,1,1.7169
18,1,12,12,6,2.1509,5.0694,3,2.2621,1,1.5637
18,1,13,13,6,3.3417,5.7198,3,2.2862,1,2.8666
18,1,14,14,6,1.5395,5.6219,2,5.1757,1,2.8272
18,1,15,15,6,2.1028,5.1789,2,1.906,0,1.8205
18,1,16,16,6,1.4628,3.1667,3,2.5535,0,1.2166
18,1,17,17,6,0.5306,5.4828,2,1.2456,1,1.0425
18,1,18,18,6,0.54154,5.0896,2,2.8748,0,1.9705
18,1,19,19,6,0.69168,4.4892,3,1.8136,0,1.3412
18,1,20,20,6,0.55224,4.4839,2,5.2755,1,2.7254
18,1,21,21,6,3.5058,7.245,2,2.8536,1,0.99076
18,1,22,22,6,1.2485,5.7815,2,1.6182,0,1.4561
18,1,23,23,6,0.61138,4.9802,3,2.9818,0,1.8634
18,1,24,24,6,0.83127,6.0455,2,2.1655,1,1.0877
18,1,25,25,6,0.61955,5.4227,2,5.2861,1,1.549
18,1,26,26,6,0.81273,7.6074,2,1.6589,1,1.0248
18,1,27,27,6,0.61463,5.8168,3,1.6328,0,2.1035
18,1,28,28,6,1.339,6.4477,3,1.4661,1,1.8282
18,1,29,29,6,1.1032,4.0338,3,1.7006,1,0.60352
18,1,30,30,6,0.67241,4.8736,3,1.6129,1,0.49214
18,1,31,31,6,0.68848,6.4003,2,1.4051,1,0.9721
18,1,32,32,6,0.97022,7.4839,2,1.3165,1,1.1918
18,1,33,33,6,0.87717,4.6519,3,1.8391,1,0.97203
18,1,34,34,6,0.48937,5.3883,3,3.114,1,1.4253
18,1,35,35,6,0.54039,5.4759,2,3.0385,0,1.179
18,1,36,36,6,1.319,4.9062,2,4.2502,1,2.0383
18,1,37,37,6,0.67036,3.9221,2,6.2399,1,1.9874
18,1,38,38,6,1.0066,4.6872,2,2.0607,1,1.6251
18,1,39,39,6,0.8383,5.2727,2,2.5364,0,1.7423
18,1,40,40,6,3.8669,5.7143,2,4.7681,1,1.4369
18,1,41,41,6,0.5192,5.3717,2,2.5391,1,0.71936
18,1,42,42,6,0.68522,6.8714,2,1.6467,1,0.5908
18,1,43,43,6,1.2408,4.1999,3,1.3612,0,2.0769
18,1,44,44,6,0.8537,3.3969,2,2.7866,0,1.5907
18,1,45,45,6,0.48294,4.5064,2,2.2021,0,0.82853
18,1,46,46,6,0.60606,8.1629,2,1.0632,1,3.3653
19,1,1,1,6,1.8806,6.166,3,2.4686,1,4.9151
19,1,2,2,6,0.86769,5.3946,2,1.9904,1,2.4725
19,1,3,3,6,2.1374,6.0313,2,2.0789,1,1.3393
19,1,4,4,6,3.0809,7.9261,2,1.8229,0,1.6848
19,1,5,5,6,1.0281,6.2527,2,4.0731,1,2.1642
19,1,6,6,6,0.71773,5.807,3,7.1231,1,2.0228
19,1,7,7,6,0.75293,5.7084,2,1.6742,0,6.3113
19,1,8,8,6,0.51036,7.1177,3,2.1911,1,0.68581
19,1,9,9,6,0.75886,5.4643,3,1.7439,1,2.1513
19,1,10,10,6,0.51403,5.5657,2,1.5453,0,2.2902
19,1,11,11,6,0.41098,5.2058,3,1.1735,0,0.68624
19,1,12,12,6,0.4647,6.23,3,1.2786,1,1.5657
19,1,13,13,6,1.8334,5.2825,2,3.4454,1,2.2358
19,1,14,14,6,0.64684,6.1457,3,2.514,1,0.73942
19,1,15,15,6,0.74214,5.9034,3,1.6975,0,0.60122
19,1,16,16,6,0.11743,5.7826,3,2.1325,1,1.7767
19,1,17,17,6,1.198,7.3198,3,1.7943,1,0.82654
19,1,18,18,6,0.69131,5.4778,3,1.7655,0,0.51429
19,1,19,19,6,0.68348,6.5187,2,2.4457,1,0.21329
19,1,20,20,6,0.64461,5.8186,3,1.5094,1,0.77517
19,1,21,21,6,0.47266,5.7887,3,1.25,1,1.4054
19,1,22,22,6,0.44474,7.1057,1,3.6726,1,4.8523
19,1,23,23,6,0.53892,6.3128,2,1.5898,1,1.034
19,1,24,24,6,0.36981,5.4727,1,3.0266,1,1.2477
19,1,25,25,6,0.47623,5.8026,2,1.2481,0,1.4656
19,1,26,26,6,0.5523,5.9722,2,2.2371,1,1.6061
19,1,27,27,6,1.2616,6.7525,2,1.5451,1,0.98924
19,1,28,28,6,0.64385,5.8549,2,3.1245,1,1.082
19,1,29,29,6,0.4506,6.9326,1,3.0791,1,1.0737
19,1,30,30,6,1.7043,6.296,2,1.1514,1,0.84432
19,1,31,31,6,0.55657,5.427,2,1.4275,0,1.1628
19,1,32,32,6,0.7532,1.7717,2,2.2584,0,0.62224
19,1,33,33,6,0.44326,4.5151,2,1.3869,0,0.59524
19,1,34,34,6,0.46784,5.721,2,3.3491,1,1.2154
19,1,35,35,6,0.64964,6.7813,1,6.2529,0,0.84679
19,1,36,36,6,0.45474,5.5489,2,2.0073,1,1.1342
19,1,37,37,6,0.61581,5.0935,2,1.5906,0,1.1232
19,1,38,38,6,0.72662,5.6039,2,1.3876,1,0.82005
19,1,39,39,6,0.45342,7.0738,2,1.736,1,1.3548
19,1,40,40,6,0.71967,4.9598,2,1.5151,1,1.3282
19,1,41,41,6,0.61916,7.4717,2,2.1831,1,0.65156
19,1,42,42,6,3.9144,5.6234,2,0.97783,1,0.76723
19,1,43,43,6,0.42854,6.1805,2,1.304,1,0.77099
19,1,44,44,6,0.7704,6.6726,2,1.2233,1,0.96163
19,1,45,45,6,2.5662,7.0302,2,1.426,0,0.69965
19,1,46,46,6,0.34162,6.9401,2,0.86092,1,0.77985
20,1,1,1,6,0.68906,7.2248,3,1.8112,1,1.6145
20,1,2,2,6,1.1152,6.045,3,1.3526,0,1.2439
20,1,3,3,6,0.56305,5.1067,2,1.4754,0,0.88713
20,1,4,4,6,0.6196,5.7355,3,1.3345,0,1.9926
20,1,5,5,6,0.401,5.4838,3,1.097,1,1.0508
20,1,6,6,6,0.5457,5.5445,2,1.4538,1,0.81965
20,1,7,7,6,1.0684,7.5576,1,2.185,1,0.97796
20,1,8,8,6,0.57538,5.6399,3,1.1154,1,1.0047
20,1,9,9,6,0.6196,5.5716,2,0.95015,0,0.69428
20,1,10,10,6,0.4927,5.4532,3,1.1,0,0.97989
20,1,11,11,6,1.0137,5.4697,3,2.3864,1,1.8289
20,1,12,12,6,0.82962,5.8315,2,1.7691,0,1.0173
20,1,13,13,6,1.2045,5.4722,2,3.2883,1,0.91591
20,1,14,14,6,1.3054,6.1852,2,1.3709,1,0.79658
20,1,15,15,6,0.62633,5.8169,3,1.3822,0,0.99144
20,1,16,16,6,0.852,6.6455,2,1.3878,1,0.69591
20,1,17,17,6,0.62923,2.6436,1,2.0986,0,0.85544
20,1,18,18,6,2.0868,5.9805,2,1.1293,1,1.0877
20,1,19,19,6,2.5572,5.8458,3,1.9904,0,1.4842
20,1,20,20,6,0.71334,5.7698,3,1.4484,1,0.97769
20,1,21,21,6,1.2446,5.203,2,1.0256,1,0.93978
20,1,22,22,6,0.67801,4.9676,2,1.1736,0,0.98642
20,1,23,23,6,1.3771,5.5528,3,1.5978,1,1.3266
20,1,24,24,6,0.5557,5.6623,2,1.2778,1,1.1906
20,1,25,25,6,0.73874,6.4866,3,1.6213,0,1.2455
20,1,26,26,6,0.70241,5.8462,2,1.8906,0,0.9349
20,1,27,27,6,0.029254,6.2466,1,2.1154,0,1.3381
20,1,28,28,6,0.68107,5.0458,2,1.4311,0,0.92592
20,1,29,29,6,1.2039,5.7711,2,1.5877,0,1.5081
20,1,30,30,6,1.0407,7.1386,2,1.2835,1,1.1418
20,1,31,31,6,0.70382,6.0105,2,2.5763,0,0.99771
20,1,32,32,6,1.0418,5.1516,1,1.8739,0,0.86005
20,1,33,33,6,0.7209,6.0481,2,0.9674,0,0.73201
20,1,34,34,6,1.3009,5.6307,2,1.3053,0,0.78473
20,1,35,35,6,1.1624,5.893,2,1.3634,0,0.83735
20,1,36,36,6,1.3641,5.4942,1,1.6769,0,0.92661
20,1,37,37,6,1.2879,5.8709,2,1.4866,0,1.2697
20,1,38,38,6,0.66584,6.656,1,1.3863,0,0.96977
20,1,39,39,6,2.8357,6.3324,2,1.2554,0,0.8965
20,1,40,40,6,2.6215,5.6544,1,1.0134,0,1.4896
20,1,41,41,6,0.78539,6.3333,3,1.3434,0,1.1757
20,1,42,42,6,1.0998,6.729,1,1.3756,1,1.1016
20,1,43,43,6,1.0408,6.8126,1,1.1386,1,2.7099
20,1,44,44,6,0.89071,5.7622,3,0.81587,1,1.4549
20,1,45,45,6,1.2227,7.1723,1,1.1343,1,0.89418
20,1,46,46,6,0.92999,5.9314,2,2.7803,0,1.1142
21,1,1,1,6,1.4869,7.6328,2,2.5383,1,3.1441
21,1,2,2,6,3.314,5.3997,3,6.0339,0,2.8195
21,1,3,3,6,2.0503,7.393,2,1.1379,1,1.6602
21,1,4,4,6,2.3683,5.9578,2,1.1018,0,0.68226
21,1,5,5,6,1.3172,4.3175,2,5.2005,1,2.9356
21,1,6,6,6,1.6912,6.0861,2,1.1214,1,2.1233
21,1,7,7,6,1.5086,7.8251,2,1.7096,1,3.3379
21,1,8,8,6,1.8505,5.4318,2,1.7827,0,3.0769
21,1,9,9,6,1.9795,5.9033,2,2.1988,0,2.3922
21,1,10,10,6,2.2765,7.3608,2,1.1386,1,0.67297
21,1,11,11,6,2.9024,3.7563,2,1.5655,0,0.66419
21,1,12,12,6,2.3589,6.2472,2,0.86618,1,0.74296
21,1,13,13,6,1.9275,8.6261,2,4.284,1,2.8999
21,1,14,14,6,1.5517,8.2677,2,1.2013,1,1.9938
21,1,15,15,6,1.7256,4.5616,2,1.3066,0,0.64889
21,1,16,16,6,1.5995,5.2442,2,1.916,0,2.4529
21,1,17,17,6,2.0273,8.2509,2,1.1385,1,1.8728
21,1,18,18,6,1.1907,10.663,2,0.75581,1,1.7366
21,1,19,19,6,2.7395,6.5442,2,1.6861,0,0.95603
21,1,20,20,6,1.95,6.9439,2,2.8015,0,1.9907
21,1,21,21,6,1.5423,7.4135,2,1.3741,1,0.62427
21,1,22,22,6,2.3187,6.1583,2,2.0762,0,2.5245
21,1,23,23,6,1.0685,4.194,2,1.2693,0,1.2317
21,1,24,24,6,1.7911,6.8991,2,3.4155,0,3.063
21,1,25,25,6,0.96786,8.0073,2,1.1832,1,0.61675
21,1,26,26,6,1.361,5.3146,2,0.90786,0,1.913
21,1,27,27,6,0.87865,5.8806,2,0.91705,1,0.60552
21,1,28,28,6,0.64179,10.404,1,4.676,1,0.91604
21,1,29,29,6,0.92804,7.3538,2,0.83167,1,0.70407
21,1,30,30,6,1.5634,7.5299,2,1.0862,0,2.2834
21,1,31,31,6,1.0755,5.2403,2,1.0365,1,1.1707
21,1,32,32,6,1.2821,7.0946,2,2.0647,1,1.6055
21,1,33,33,6,1.4854,7.4803,2,1.2005,1,2.2299
21,1,34,34,6,1.5384,6.7099,2,0.66058,0,1.0799
21,1,35,35,6,1.8511,8.3081,2,1.6449,1,1.9394
21,1,36,36,6,1.5253,7.387,2,2.344,1,1.9129
21,1,37,37,6,2.0499,8.0568,2,0.85747,1,0.6256
21,1,38,38,6,1.7741,5.8981,2,1.243,1,1.6759
21,1,39,39,6,1.0251,5.5133,2,1.055,0,0.87242
21,1,40,40,6,1.0048,3.8231,2,1.0156,0,0.62993
21,1,41,41,6,1.5379,4.0716,2,2.4765,0,3.8235
21,1,42,42,6,0.99633,5.0319,2,1.2078,1,0.63808
21,1,43,43,6,0.86899,4.183,2,1.5999,0,0.64153
21,1,44,44,6,1.032,8.8834,2,3.7494,1,2.0502
21,1,45,45,6,0.68812,7.3118,2,1.3397,1,2.9605
21,1,46,46,6,1.0935,7.5021,2,1.0177,1,0.81796
22,1,1,1,6,1.2507,4.1182,3,2.1606,0,3.2869
22,1,2,2,6,3.2921,5.5705,2,4.3123,1,2.9195
22,1,3,3,6,1.2662,4.2173,2,2.3881,0,0.64375
22,1,4,4,6,1.5579,5.199,3,1.6586,0,2.175
22,1,5,5,6,1.2336,5.1047,2,2.5007,1,0.58937
22,1,6,6,6,1.1157,4.929,3,1.2808,0,2.0519
22,1,7,7,6,1.4323,5.194,2,3.1908,0,1.2569
22,1,8,8,6,1.1615,4.9177,3,3.0729,1,3.1179
22,1,9,9,6,1.1161,5.3041,3,2.6642,1,0.90102
22,1,10,10,6,1.1502,5.7049,3,1.0246,0,6.0895
22,1,11,11,6,0.90441,4.5362,3,1.0012,0,1.9691
22,1,12,12,6,1.0775,5.8146,2,1.1193,1,1.2332
22,1,13,13,6,0.83843,4.8235,3,1.4138,1,2.7259
22,1,14,14,6,0.88877,5.3745,2,2.988,1,0.90389
22,1,15,15,6,0.6522,7.0462,1,1.1887,1,1.7724
22,1,16,16,6,0.97692,5.5407,3,2.4618,0,1.7508
22,1,17,17,6,1.1012,4.0436,3,1.2178,1,2.8938
22,1,18,18,6,0.63041,5.8191,3,1.0852,1,1.9455
22,1,19,19,6,1.0135,6.5699,2,3.7333,1,0.90147
22,1,20,20,6,0.73437,5.2078,2,3.9625,1,1.3714
22,1,21,21,6,0.60339,4.072,3,1.0515,0,1.0826
22,1,22,22,6,1.2973,3.7437,3,2.9196,0,0.35269
22,1,23,23,6,1.216,4.8207,3,1.1395,0,3.3248
22,1,24,24,6,0.95287,4.8701,3,1.1016,0,1.12
22,1,25,25,6,1.1151,6.5325,2,2.6792,1,0.72506
22,1,26,26,6,2.6348,5.7437,2,1.5272,0,0.51391
22,1,27,27,6,0.75417,5.3611,2,0.67776,0,1.6006
22,1,28,28,6,0.74162,5.9277,3,1.4391,1,1.6097
22,1,29,29,6,1.7054,5.7721,2,0.84992,1,0.44361
22,1,30,30,6,1.484,5.2165,2,2.0725,0,0.80717
22,1,31,31,6,0.78073,4.4821,3,0.88599,0,1.2575
22,1,32,32,6,0.70231,5.1085,2,2.6143,0,0.12717
22,1,33,33,6,2.4021,4.9451,2,3.6169,1,1.0526
22,1,34,34,6,2.4385,4.7438,3,2.2037,0,2.0309
22,1,35,35,6,1.3026,7.5944,1,0.8131,1,1.2398
22,1,36,36,6,1.1074,4.8624,3,1.3055,1,3.8351
22,1,37,37,6,1.3877,6.0966,2,1.778,1,1.1386
22,1,38,38,6,1.5844,4.618,2,1.7493,1,0.33953
22,1,39,39,6,0.48971,5.5383,3,1.7636,0,1.5918
22,1,40,40,6,1.569,5.7821,3,1.5186,0,3.7931
22,1,41,41,6,1.6281,5.364,2,3.0063,1,2.4183
22,1,42,42,6,0.65524,5.5989,2,1.8074,0,0.97189
22,1,43,43,6,2.6915,6.9204,2,1.7205,1,1.3942
22,1,44,44,6,0.76301,5.0815,3,1.8334,1,2.04
22,1,45,45,6,0.8359,5.1086,3,0.83918,0,2.362
22,1,46,46,6,1.3172,6.4562,3,1.5745,1,2.0852
23,1,1,1,6,1.2483,5.9899,3,2.0764,0,6.3252
23,1,2,2,6,1.2306,4.5688,3,3.8007,1,4.9014
23,1,3,3,6,0.92916,2.8686,2,2.9138,0,2.0144
23,1,4,4,6,0.73643,4.5095,3,1.9676,1,2.0533
23,1,5,5,6,0.9765,5.6773,3,2.8651,0,3.7891
23,1,6,6,6,0.99856,3.6537,3,2.1638,0,1.7769
23,1,7,7,6,1.427,3.6519,2,4.6493,0,1.2602
23,1,8,8,6,2.4597,6.3367,3,1.1711,1,1.6341
23,1,9,9,6,1.1848,3.8063,3,1.5778,0,3.7894
23,1,10,10,6,1.346,7.6927,3,1.4742,1,1.0982
23,1,11,11,6,1.7203,6.8325,3,1.8664,0,1.5013
23,1,12,12,6,1.1866,3.3341,2,3.1987,0,1.4389
23,1,13,13,6,0.89274,5.2526,3,2.5872,1,0.91781
23,1,14,14,6,0.83985,4.4376,3,2.0751,1,1.9596
23,1,15,15,6,1.0248,4.6505,2,1.7496,0,1.0406
23,1,16,16,6,0.59373,6.58,2,1.977,0,1.2503
23,1,17,17,6,0.94942,6.7438,3,1.3779,0,3.7522
23,1,18,18,6,0.98935,3.8987,2,1.836,0,0.96837
23,1,19,19,6,1.1088,4.1631,2,2.5718,0,1.518
23,1,20,20,6,0.79396,6.5288,3,1.4022,1,1.0429
23,1,21,21,6,0.75097,5.6813,3,1.2561,1,1.3733
23,1,22,22,6,1.1664,6.0554,3,1.7363,0,2.9576
23,1,23,23,6,1.4651,5.2814,2,1.4952,0,1.015
23,1,24,24,6,0.66563,5.0188,3,1.7242,0,2.4724
23,1,25,25,6,1.4636,4.5809,3,1.3832,1,1.4041
23,1,26,26,6,0.78912,4.5111,3,1.5308,0,1.0764
23,1,27,27,6,0.67941,6.0198,3,1.3716,1,1.2966
23,1,28,28,6,0.71116,6.3795,3,1.9646,0,1.4173
23,1,29,29,6,1.357,5.4747,3,2.8747,0,0.93343
23,1,30,30,6,0.7509,4.8207,2,2.3629,0,2.8512
23,1,31,31,6,0.83125,5.8085,3,2.3381,1,1.2179
23,1,32,32,6,1.1982,3.8328,3,4.0121,0,2.222
23,1,33,33,6,1.1952,6.0782,2,1.6281,1,1.3642
23,1,34,34,6,0.73376,8.8818,2,1.1269,1,0.90245
23,1,35,35,6,0.92331,6.7757,3,4.2262,1,3.3672
23,1,36,36,6,1.1425,5.3514,3,2.3853,0,0.99025
23,1,37,37,6,1.2349,6.2427,2,3.9866,0,2.1412
23,1,38,38,6,0.74564,5.2185,3,2.1619,1,2.9877
23,1,39,39,6,0.60553,6.3987,2,1.7794,1,2.6158
23,1,40,40,6,0.76428,5.4957,3,2.4044,0,0.69192
23,1,41,41,6,1.5579,6.9108,2,1.2654,1,0.7772
23,1,42,42,6,0.75554,4.6116,2,1.9193,0,0.83081
23,1,43,43,6,1.1301,4.5307,2,4.5842,0,0.91216
23,1,44,44,6,1.0435,7.1038,3,2.1328,1,1.3759
23,1,45,45,6,0.86807,8.9204,3,1.9528,1,1.0427
23,1,46,46,6,1.2763,5.7025,2,3.1856,0,1.2386
24,1,1,1,6,1.4862,3.7561,2,2.6289,0,1.3628
24,1,2,2,6,0.81938,5.1468,2,1.8062,1,1.0967
24,1,3,3,6,0.94866,3.8041,2,2.1635,0,3.0645
24,1,4,4,6,1.6891,3.547,3,1.7743,0,1.1224
24,1,5,5,6,2.1719,3.7453,2,1.6704,0,1.4329
24,1,6,6,6,2.9457,4.5615,2,2.5194,0,0.26521
24,1,7,7,6,1.0394,4.9863,2,1.8376,0,1.1454
24,1,8,8,6,1.0651,4.5713,1,1.2745,1,0.99929
24,1,9,9,6,0.89161,4.2264,2,1.9424,0,1.0492
24,1,10,10,6,0.61578,3.9795,2,1.522,1,0.897
24,1,11,11,6,0.47511,4.1151,3,2.5361,0,1.9417
24,1,12,12,6,0.91899,2.8947,2,1.687,0,0.74331
24,1,13,13,6,0.85405,3.9469,3,1.485,0,2.5317
24,1,14,14,6,1.2077,4.2253,2,1.3549,0,1.1214
24,1,15,15,6,0.77304,3.6511,3,1.8227,0,1.0965
24,1,16,16,6,0.68902,3.2752,1,0.89495,1,1.6417
24,1,17,17,6,0.47896,3.3574,2,1.9799,0,1.1658
24,1,18,18,6,0.69635,2.8693,3,1.3893,0,2.7723
24,1,19,19,6,0.63206,4.4047,3,1.8003,0,1.4915
24,1,20,20,6,0.64483,3.6548,2,1.3775,1,0.8892
24,1,21,21,6,1.1418,2.6142,2,0.96047,1,1.2033
24,1,22,22,6,0.58222,4.7432,2,2.3924,1,0.87201
24,1,23,23,6,0.69704,3.5328,2,1.5638,0,1.0139
24,1,24,24,6,0.58748,3.3603,2,1.9333,0,1.6773
24,1,25,25,6,0.55389,3.5099,3,1.4459,0,1.1657
24,1,26,26,6,0.52707,3.6554,2,1.452,0,0.70596
24,1,27,27,6,0.4521,2.6461,1,0.97584,0,0.85223
24,1,28,28,6,0.58812,3.1366,2,1.6649,0,0.76344
24,1,29,29,6,0.42502,4.0526,2,1.229,1,1.6294
24,1,30,30,6,0.46186,3.3941,2,0.99675,1,0.6263
24,1,31,31,6,0.68137,4.2172,2,1.2129,0,0.77482
24,1,32,32,6,0.53832,5.0238,3,1.3262,1,3.9264
24,1,33,33,6,0.56603,4.681,2,1.2836,0,0.41828
24,1,34,34,6,1.0416,2.751,2,0.96413,0,1.2529
24,1,35,35,6,0.68096,3.3213,3,1.4899,0,0.76088
24,1,36,36,6,0.42644,4.829,2,1.4448,0,1.2149
24,1,37,37,6,0.45447,4.5729,3,1.7392,1,1.0091
24,1,38,38,6,2.2576,4.4843,3,1.612,0,0.8775
24,1,39,39,6,0.86725,4.7686,3,1.413,0,0.78023
24,1,40,40,6,0.91556,4.8929,2,1.9523,1,0.80559
24,1,41,41,6,0.64335,5.3668,3,1.508,0,0.67444
24,1,42,42,6,0.49211,3.4908,3,1.0674,0,0.61863
24,1,43,43,6,0.72627,4.2897,3,1.6024,1,0.83147
24,1,44,44,6,0.89338,4.0659,1,1.5752,0,1.15
24,1,45,45,6,0.43544,4.3712,2,1.5623,0,0.5532
24,1,46,46,6,1.0398,4.1748,3,1.4791,0,0.65362
