Subj_idx,Block,Trial,RT_stop,Stimulus,Response,Error,Confidence,RT_confidence,ErrorDirectionJudgment,RT_directionJudgment
1,3,1,3.73551020408163,11,11.0,0,2,5.12717698000006,1,0.0159909549997792
1,3,2,4.20281179138322,11,11.0,0,2,2.28584540100019,1,0.0166740529998606
1,3,3,4.16798185941043,11,10.0,-1,2,4.62954244299999,1,1.95519116200012
1,3,4,4.43501133786848,11,11.0,0,1,4.38690704200008,1,0.6399670159999
1,3,5,4.90956916099773,11,12.0,1,2,4.00301870900012,1,1.18574353000031
1,3,6,4.35954648526077,11,12.0,1,3,1.15749363900022,1,0.618620563999684
1,3,7,4.21006802721088,11,12.0,1,3,5.95451480400015,1,0.0159975690003193
1,3,8,4.34213151927438,11,11.0,0,2,3.40295205499979,-1,0.0163173800001459
1,3,9,4.060589569161,11,10.0,-1,3,1.51313701200024,-1,0.0165615420000904
1,3,10,4.0431746031746,11,11.0,0,1,5.12765036400015,-1,0.015929394000068
1,3,11,4.01850340136054,11,11.0,0,3,0.681718956000168,1,0.441079458999866
1,3,12,4.21442176870748,11,10.0,-1,1,1.57960432800019,-1,0.0159392770001432
1,3,13,3.85741496598639,11,10.0,-1,2,1.11321431299984,1,0.725926499999787
1,3,14,4.14766439909297,11,10.0,-1,3,0.395522690000234,-1,0.472400427000139
1,3,15,3.91981859410431,11,10.0,-1,2,1.10812365600032,1,0.449199606000093
1,3,16,4.62222222222222,11,11.0,0,3,1.82296259000032,-1,0.0163645869997708
1,3,17,4.60335600907029,11,12.0,1,1,2.13166173399986,1,0.201988641999833
1,3,18,4.0431746031746,11,11.0,0,2,1.85522915499996,1,0.0159280499997294
1,3,19,3.9459410430839,11,11.0,0,2,2.28326130100004,-1,0.344765530000132
1,3,20,4.60480725623583,11,13.0,2,1,0.94035098600034,1,0.0319871679998869
1,3,21,5.47990929705215,11,14.0,3,3,0.751897248000205,1,0.765018087999579
1,3,22,4.88199546485261,11,12.0,1,2,1.53266456900019,1,0.0161834460000136
1,3,23,3.54975056689342,11,11.0,0,3,1.6521396410003,1,0.164973546000056
1,3,24,4.75283446712018,11,12.0,1,2,0.868498386999818,1,0.0164664620001531
1,3,25,3.38721088435374,11,10.0,-1,2,2.14357780699993,-1,0.0179390249995777
1,3,26,4.15492063492063,11,11.0,0,3,0.795044857999983,-1,0.447658604000026
1,3,27,3.65859410430839,11,9.0,-2,1,1.3394968560001,-1,0.0169358519997331
1,3,28,4.04027210884354,11,11.0,0,2,1.2698784690001,-1,0.220385589999751
1,3,29,4.52934240362812,11,12.0,1,1,1.08700522500021,1,0.0159677719998399
1,3,30,4.64544217687075,11,11.0,0,3,1.31061427300028,1,1.01902821900012
1,3,31,4.76879818594104,11,11.0,0,2,1.22024444099998,1,0.0164361560000543
1,3,32,4.54820861678005,11,11.0,0,1,1.0950311040001,1,0.0159422749998157
1,3,33,4.10848072562358,11,10.0,-1,3,1.86007374199971,-1,0.016583780000019
1,3,34,3.80226757369615,11,11.0,0,3,0.950387509999928,-1,0.505351731999781
1,3,35,4.77170068027211,11,11.0,0,3,1.61262206999982,-1,0.630341842000234
1,3,36,4.77460317460317,11,12.0,1,3,1.08003359599979,-1,2.72738983999989
1,3,37,4.01850340136054,11,11.0,0,1,1.11245543299992,1,0.0168365700001232
1,3,38,4.45968253968254,11,12.0,1,1,1.35882385400009,1,0.0162118700000065
1,3,39,4.1447619047619,11,12.0,1,1,1.02442860599967,1,0.016906397999719
1,3,40,4.40743764172336,11,11.0,0,3,0.662465649000296,-1,0.566238989999874
1,3,41,4.01124716553288,11,10.0,-1,2,1.86523236099993,1,0.0873195019999002
1,3,42,4.5902947845805,11,12.0,1,2,1.96762014599972,1,0.0169519429996399
1,3,43,4.85877551020408,11,12.0,1,1,2.69914707299995,1,0.0165043330002845
1,3,44,4.85442176870748,11,12.0,1,1,3.05531922,1,0.016869349999979
1,3,45,4.69333333333333,11,11.0,0,3,0.961538774000019,1,2.17317143300033
1,3,46,5.70049886621315,11,14.0,3,1,0.727180600999873,1,0.0168842680000125
1,3,47,5.06630385487528,11,13.0,2,2,1.38171161899982,1,1.50348494199989
1,3,48,4.80943310657596,11,11.0,0,2,1.6260820690004,1,0.0165609499999846
1,3,49,5.49442176870748,11,14.0,3,1,1.15366316200016,1,0.0163997270001346
1,3,50,4.5859410430839,11,12.0,1,2,1.51591408700006,-1,0.0164044089997333
1,3,51,4.72380952380952,11,12.0,1,2,1.5737496390002,1,0.0163438600002337
1,3,52,5.0053514739229,11,12.0,1,1,2.07094718200005,1,0.0160465769999973
1,3,53,4.21006802721088,11,10.0,-1,2,0.968545837999955,1,0.0162581880003927
1,3,54,4.35083900226757,11,11.0,0,3,0.540368372000103,-1,0.570232753000255
1,3,55,4.40163265306122,11,11.0,0,2,1.27784456500012,-1,0.238140956999814
1,3,56,3.9415873015873,11,12.0,1,1,2.29379129800009,1,0.851937535000161
1,3,57,4.83555555555556,11,13.0,2,1,1.26061953899989,1,0.0168983580001623
1,3,58,6.5015873015873,11,16.0,5,1,1.62525980800001,1,0.0169062019999728
1,3,59,4.78185941043084,11,11.0,0,3,1.72769440299999,-1,0.0168586849999883
1,3,60,4.30004535147392,11,11.0,0,3,2.20235630200023,1,0.0160334399997737
1,3,61,4.81233560090703,11,12.0,1,1,1.41135353600021,1,0.0759149509999588
1,3,62,4.91972789115646,11,13.0,2,1,1.03024433400014,1,0.0161034830002791
1,3,63,5.2346485260771,11,14.0,3,1,1.41571443300018,1,0.0160144819997186
1,3,64,4.18104308390023,11,11.0,0,3,1.57887812499985,-1,0.524016628000027
1,3,65,4.21006802721088,11,11.0,0,3,1.81091313499974,1,0.163120321999941
1,3,66,5.88045351473923,11,14.0,3,1,1.42163833599989,1,0.127417993000108
1,3,67,4.06349206349206,11,11.0,0,3,2.04305852700008,1,0.360713577999832
1,3,68,4.10122448979592,11,11.0,0,2,1.24460178100026,1,0.045580186999814
1,3,69,4.08816326530612,11,11.0,0,1,1.66369222699996,1,0.190887604000181
1,3,70,5.49587301587302,11,13.0,2,1,1.49612800500017,1,0.0159943789999488
1,3,71,3.75727891156463,11,11.0,0,3,1.91123080999978,-1,0.507917734999864
1,3,72,4.23038548752834,11,11.0,0,2,2.08466204000024,1,0.474094874999992
1,3,73,8.4346485260771,11,22.0,11,1,1.38781697899958,1,0.0158623980000812
1,3,74,4.3784126984127,11,11.0,0,3,1.73991842600026,-1,0.886781252999754
1,3,75,6.48707482993197,11,17.0,6,1,0.833833456999855,1,0.208989266000117
1,3,76,4.00253968253968,11,10.0,-1,3,1.76365511199992,-1,26.0227289069999
1,3,77,3.91256235827664,11,10.0,-1,3,0.691088232000311,-1,1.29066343600016
1,3,78,4.19120181405896,11,11.0,0,3,3.08196060299997,-1,0.296959577000052
1,3,79,4.38421768707483,11,11.0,0,3,1.64801680300025,-1,0.989741039000364
1,3,80,4.64108843537415,11,11.0,0,3,0.548982656999669,-1,0.392017133000081
1,3,81,4.24780045351474,11,11.0,0,3,1.42842942000016,1,2.12658917999988
1,3,82,3.83854875283447,11,11.0,0,2,7.46240796499978,1,1.07311054299998
1,4,1,7.25768707482993,19,17.0,-2,2,2.43477833099996,-1,0.0160742379998737
1,4,2,6.65541950113379,19,17.0,-2,2,1.89796704199989,-1,1.71380158400007
1,4,3,8.2227664399093,19,20.0,1,3,2.18768442700002,1,0.0206118209998749
1,4,4,7.94993197278912,19,20.0,1,1,2.31352881300018,1,0.255419404999884
1,4,5,8.3287074829932,19,20.0,1,1,3.21243181999989,1,0.0162610790002873
1,4,6,6.87600907029478,19,17.0,-2,1,1.28182040000002,-1,1.20200502899979
1,4,7,7.81786848072562,19,19.0,0,2,2.02021153999976,1,0.444444160999865
1,4,8,7.01968253968254,19,19.0,0,3,2.06205456099997,-1,1.81275536799967
1,4,9,8.79891156462585,19,21.0,2,2,1.97591315799991,1,1.36854665299961
1,4,10,0.0058049886621315,19,1.0,-18,1,1.87356499999987,-1,0.406905219999771
1,4,11,7.80916099773243,19,19.0,0,1,2.15991396900017,-1,0.0671259069999905
1,4,12,7.10240362811791,19,18.0,-1,3,2.978201076,-1,1.23654746900002
1,4,13,7.73369614512472,19,19.0,0,2,2.9861949430001,1,0.106635286000255
1,4,14,7.86721088435374,19,19.0,0,2,2.24187759000006,1,1.05788876399993
1,4,15,7.98040816326531,19,20.0,1,1,1.15046783300022,-1,1.01828055700025
1,4,16,8.00362811791383,19,20.0,1,2,2.89779601100008,-1,0.502940551999927
1,4,17,1.31337868480726,19,4.0,-15,1,1.35536510100019,-1,0.678672215999995
1,4,18,6.73959183673469,19,17.0,-2,3,2.38302221000004,-1,0.015933534999931
1,4,19,7.74820861678005,19,20.0,1,2,1.96767495299991,-1,0.0164217390001795
1,4,20,7.70467120181406,19,19.0,0,2,3.3555501400001,-1,0.588378256999931
1,4,21,6.79183673469388,19,20.0,1,3,1.52991281000004,1,0.462268752999989
1,4,22,7.11691609977324,19,18.0,-1,2,1.42065438500003,1,0.990379731000303
1,4,23,7.6887074829932,19,20.0,1,2,2.65816278099965,1,0.349607510999704
1,4,24,6.71637188208617,19,19.0,0,1,1.43542582300006,1,0.39585070999965
1,4,25,8.08925170068027,19,19.0,0,1,1.40983095900037,1,0.306902061000073
1,4,26,6.89777777777778,19,17.0,-2,3,3.84354513400012,1,0.488626240000031
1,4,27,7.80625850340136,19,21.0,2,1,1.22094003600023,1,0.0167349719999947
1,4,28,7.82222222222222,19,19.0,0,3,1.09894185400026,-1,0.057018701999823
1,4,29,6.78312925170068,19,18.0,-1,3,0.84496275499987,-1,0.0556765050000649
1,4,30,6.68734693877551,19,16.0,-3,2,2.07818401499981,-1,0.40209840999978
1,4,31,8.49560090702948,19,23.0,4,2,1.91321517799997,-1,0.503198170999895
1,4,32,9.19365079365079,19,23.0,4,1,0.700868397000249,1,0.123391949000052
1,4,33,8.94403628117914,19,22.0,3,2,2.04624288000014,1,0.501257365000129
1,4,34,7.5871201814059,19,19.0,0,3,0.952627114999814,-1,1.58916075999969
1,4,35,10.4373696145125,19,26.0,7,1,1.52160279800046,1,0.245846730999801
1,4,36,8.50140589569161,19,21.0,2,1,0.645386776000123,1,0.015929369999867
1,4,37,8.61315192743764,19,21.0,2,3,6.60740924299989,-1,1.45315763399958
1,4,38,6.90503401360544,19,16.0,-3,1,1.06112363900047,-1,0.0160929260000557
1,4,39,7.09514739229025,19,18.0,-1,2,1.61242235100053,-1,0.0170772949995808
1,4,40,7.30557823129252,19,17.0,-2,2,3.02523441999983,-1,0.337311870000121
1,4,41,7.12707482993197,19,19.0,0,3,1.95061363399964,-1,0.34637862100044
1,4,42,7.45215419501134,19,19.0,0,1,0.724441780000234,1,0.106776257999627
1,4,43,8.54349206349206,19,21.0,2,1,0.730812216000231,1,0.544819518999248
1,4,44,7.11836734693878,19,16.0,-3,1,0.924340650999511,-1,0.0168061109998234
1,4,45,8.52897959183673,19,21.0,2,1,0.684120942999471,1,0.0827852450001956
1,4,46,9.7146485260771,19,23.0,4,1,0.587595074000092,1,0.0387377569995806
1,4,47,5.82530612244898,19,16.0,-3,2,1.24614618499982,-1,0.10360428399963
1,4,48,8.45351473922902,19,20.0,1,3,3.14413191199947,1,0.370943870000701
1,4,49,7.78739229024943,19,20.0,1,2,1.86043483000049,1,0.0676527599998735
1,4,50,7.51600907029478,19,19.0,0,3,2.09923225500006,1,0.479543825000292
1,4,51,7.61614512471655,19,19.0,0,3,0.865322521999587,1,0.194378707999931
1,4,52,8.2227664399093,19,21.0,2,2,0.999703329000113,1,0.0415950719998364
1,4,53,7.62195011337869,19,19.0,0,1,1.85254945299948,-1,0.172047650000422
1,4,54,9.52888888888889,19,22.0,3,2,2.31777042500016,1,1.13896925100016
1,4,55,7.70612244897959,19,20.0,1,1,1.3577660130004,1,0.0418246250001175
1,4,56,5.40299319727891,19,15.0,-4,1,1.94707506400027,-1,0.341828749999877
1,4,57,8.09650793650794,19,19.0,0,2,0.878056504999222,1,0.668601082999885
1,4,58,7.80335600907029,19,20.0,1,2,2.95949184999972,1,0.450385860000097
1,4,59,7.98185941043084,19,19.0,0,2,1.16095525799938,1,0.268497069000659
1,4,60,7.20544217687075,19,19.0,0,2,1.82398396799999,-1,0.360110480000003
1,4,61,6.82956916099773,19,19.0,0,2,1.29810864999945,1,0.240325521000159
1,4,62,8.11102040816326,19,21.0,2,1,2.64093454199974,1,1.39186225599951
1,4,63,7.95718820861678,19,20.0,1,2,1.72774176799976,1,0.123965688000681
1,4,64,8.67990929705215,19,22.0,3,1,1.2807969000005,1,0.520659734999754
2,3,1,7.27945578231293,19,20.0,1,2,1.88288249099969,1,0.83253961400078
2,3,2,7.53342403628118,19,20.0,1,2,1.11943305899877,-1,0.084910937001041
2,3,3,7.18077097505669,19,20.0,1,3,1.49624486800167,1,0.246499531998779
2,3,4,7.27510204081633,19,18.0,-1,3,1.03755629599982,-1,0.949358551000842
2,3,5,7.11546485260771,19,19.0,0,3,1.12672272500095,1,0.0749826499995834
2,3,6,7.50439909297052,19,18.0,-1,1,2.23079098099879,-1,0.767805554000006
2,3,7,8.10956916099773,19,20.0,1,1,2.19922853199932,1,1.0083551179996
2,3,8,7.8875283446712,19,20.0,1,1,2.7820817110005,1,0.766692244998922
2,3,9,7.75111111111111,19,19.0,0,3,1.88810053399902,1,14.5016689469994
2,3,10,7.70612244897959,19,19.0,0,3,0.966287786999601,1,0.0962656120009342
2,3,11,7.47972789115646,19,19.0,0,3,1.41492244600158,1,1.29676460299925
2,3,12,8.96290249433107,19,23.0,4,1,1.00849826000012,1,0.842562136998822
2,3,13,7.21414965986395,19,18.0,-1,2,0.790838219998477,1,0.0834204269995098
2,3,14,7.20399092970522,19,18.0,-1,1,1.39426855199963,-1,0.834592383000199
2,3,15,9.07755102040816,19,23.0,4,2,1.72986628400031,1,0.238020324999525
2,3,16,2.85024943310658,19,7.0,-12,1,2.90817363199858,-1,28.0227840330008
2,3,17,7.44925170068027,19,19.0,0,3,1.46291043800011,1,0.10952422399896
2,3,18,7.92235827664399,19,19.0,0,3,2.2407993429988,-1,0.0884724379993713
2,3,19,7.92380952380952,19,20.0,1,2,1.21692527800042,1,0.128942702000131
2,3,20,5.4334693877551,19,15.0,-4,3,1.02989827200145,1,0.06998246799958
2,3,21,6.56979591836735,19,18.0,-1,2,0.761405678000301,1,0.206472554000356
2,3,22,7.97605442176871,19,19.0,0,3,0.963025580998874,1,0.0802371970003151
2,3,23,7.70031746031746,19,20.0,1,2,0.946475718999864,1,0.102156061000642
2,3,24,8.02249433106576,19,19.0,0,3,0.807821742999295,1,0.179507917000592
2,3,25,0.417959183673469,19,2.0,-17,1,1.88668952700027,-1,0.115985499000089
2,3,26,7.56680272108844,19,18.0,-1,2,1.32144267600052,1,0.22393986499992
2,3,27,6.85569160997732,19,19.0,0,1,0.740304379000008,1,0.770665994999945
2,3,28,7.94848072562358,19,19.0,0,2,1.00212811799975,-1,0.150095374001467
2,3,29,6.74104308390023,19,17.0,-2,1,0.879508105999776,-1,0.0167224500000884
2,3,30,8.07909297052154,19,19.0,0,3,1.31951509400096,1,0.0166814339991106
2,3,31,7.30848072562358,19,18.0,-1,3,1.20969909800078,1,0.0825385579992144
2,3,32,5.91963718820862,19,16.0,-3,1,2.01853913700143,-1,0.180009924999467
2,3,33,7.35201814058957,19,19.0,0,3,2.09953973900156,-1,1.92075519599894
2,3,34,7.71047619047619,19,20.0,1,2,0.708925402999739,-1,0.835082076000617
2,3,35,7.14303854875283,19,17.0,-2,1,1.36887558600029,-1,0.0999085130006279
2,3,36,8.87002267573696,19,23.0,4,1,1.21543328999905,-1,0.119802445999085
2,3,37,8.53043083900227,19,21.0,2,1,1.37210678800147,1,0.0315876800013939
2,3,38,7.75691609977324,19,20.0,1,2,2.21425759799968,1,1.63913216900073
2,3,39,7.45360544217687,19,19.0,0,3,1.58176832699974,1,0.85676506100026
2,3,40,7.74240362811791,19,18.0,-1,3,1.19431576300121,-1,0.116122769000867
2,3,41,6.82521541950113,19,17.0,-2,3,0.535985157999676,-1,0.90379399000085
2,3,42,6.98340136054422,19,18.0,-1,2,1.56600088400046,-1,0.143980508000823
2,3,43,8.61605442176871,19,22.0,3,1,0.928725473999293,1,0.535314430000653
2,3,44,7.22575963718821,19,19.0,0,2,1.14129235700057,-1,0.114913548999539
2,3,45,6.65977324263039,19,17.0,-2,2,0.941220266000528,-1,0.130119832998389
2,3,46,8.28952380952381,19,19.0,0,3,3.44625013100085,1,0.253919669999959
2,3,47,7.82367346938775,19,20.0,1,1,1.37286888899871,1,0.264275604999057
2,3,48,7.84399092970522,19,20.0,1,2,0.973700912001732,-1,0.120952133000173
2,3,49,7.09804988662132,19,20.0,1,2,1.34883507999984,-1,0.111648849999256
2,3,50,8.47818594104308,19,20.0,1,3,2.39854295899931,1,0.0633178330008377
2,3,51,8.32290249433107,19,20.0,1,2,1.63548660400011,1,0.452004454999042
2,3,52,6.91083900226757,19,18.0,-1,2,1.27540137399956,1,0.14667634000034
2,3,53,8.02539682539683,19,20.0,1,1,1.50765075199888,-1,0.0740068840004824
2,3,54,7.86575963718821,19,21.0,2,1,0.89901872000155,-1,0.257885883000199
2,3,55,8.27646258503401,19,21.0,2,2,1.73949379800069,-1,1.11718135099909
2,3,56,7.67274376417234,19,19.0,0,2,0.848469938000562,-1,0.857542803998513
2,3,57,8.85696145124717,19,22.0,3,1,4.39907502999995,1,0.454109347001577
2,3,58,8.25904761904762,19,20.0,1,1,0.966023167999083,-1,0.0493990079994546
2,3,59,7.93687074829932,19,22.0,3,1,1.88131170599991,-1,0.0798206960007519
2,3,60,7.52761904761905,19,19.0,0,3,1.5188020250007,-1,0.131538429001012
2,3,61,8.3112925170068,19,21.0,2,2,2.61799425400022,1,0.113953891999699
2,3,62,6.82521541950113,19,18.0,-1,2,0.771973511000397,-1,0.240731775000313
2,3,63,7.61324263038549,19,20.0,1,2,0.981486913000481,-1,0.0397344880002493
2,4,1,4.50176870748299,11,11.0,0,3,1.58700965699973,1,0.188174123000863
2,4,2,5.03292517006803,11,11.0,0,3,0.731337043000167,1,0.0253901910000423
2,4,3,4.17814058956916,11,11.0,0,3,1.06516304499928,1,0.832801491000282
2,4,4,4.42049886621315,11,12.0,1,3,1.19628194500001,1,0.712506341000335
2,4,5,4.16943310657596,11,11.0,0,3,0.672708325999338,1,0.0568478060013149
2,4,6,4.09687074829932,11,11.0,0,3,0.833260360001077,1,0.105253357000038
2,4,7,3.81242630385488,11,11.0,0,3,0.796723330000532,1,0.0325163860015891
2,4,8,4.5815873015873,11,12.0,1,2,1.04911878700113,1,0.360258569000507
2,4,9,4.62077097505669,11,11.0,0,3,0.64805351799987,1,0.047280150000006
2,4,10,4.54530612244898,11,11.0,0,3,0.696563335000974,1,0.103178635999939
2,4,11,0.654512471655329,11,2.0,-9,1,1.50289975099986,-1,0.307008770998436
2,4,12,4.3784126984127,11,11.0,0,3,0.963552931001686,1,0.119154268999409
2,4,13,4.5859410430839,11,11.0,0,3,0.596433871000045,1,0.0640747470006318
2,4,14,3.91691609977324,11,12.0,1,2,1.44344524999906,1,0.0911948020002455
2,4,15,4.55256235827664,11,12.0,1,2,0.844312061999517,1,0.708408491000228
2,4,16,4.42195011337868,11,11.0,0,3,0.542218343000059,1,0.113698218001446
2,4,17,0.772063492063492,11,3.0,-8,1,1.27541974000087,-1,0.0256031930002791
2,4,18,4.39002267573696,11,11.0,0,3,1.10146199800147,1,0.132358823000686
2,4,19,4.49741496598639,11,11.0,0,3,0.763744908001172,1,0.0640416639998875
2,4,20,4.39873015873016,11,11.0,0,3,1.14373514399995,-1,0.340578613000616
2,4,21,4.04462585034014,11,10.0,-1,3,1.22386615599862,-1,0.0892003770004521
2,4,22,4.28408163265306,11,11.0,0,3,0.995945868999115,-1,0.111800853001114
2,4,23,4.35519274376417,11,11.0,0,3,0.775233942998966,1,0.036751040001036
2,4,24,4.038820861678,11,10.0,-1,1,1.20062569000038,-1,0.0591086460008228
2,4,25,3.54394557823129,11,8.0,-3,2,1.52164273000017,-1,0.0558109439989494
2,4,26,4.67301587301587,11,12.0,1,2,1.78655282199907,1,0.748768577999726
2,4,27,4.73687074829932,11,12.0,1,2,1.01186375200086,1,0.0386561849991267
2,4,28,4.7891156462585,11,11.0,0,3,0.80793197300045,1,0.131312868999885
2,4,29,4.19700680272109,11,12.0,1,3,0.755377360001148,1,0.0239967550005531
2,4,30,3.86031746031746,11,10.0,-1,2,1.98387233699941,-1,0.77861438599939
2,4,31,4.25650793650794,11,11.0,0,3,1.70624339700043,1,1.47302733499964
2,4,32,4.42630385487528,11,11.0,0,3,0.713355468000373,1,0.0169040720011253
2,4,33,2.66013605442177,11,8.0,-3,1,0.678157457001362,-1,72.6871457829984
2,4,34,4.64544217687075,11,11.0,0,3,0.768204666001111,1,1.24406991700016
2,4,35,4.31165532879819,11,11.0,0,3,0.889545162999639,1,0.112732792000315
2,4,36,4.84136054421769,11,11.0,0,3,1.24665432200163,1,0.0324576319999323
2,4,37,3.96045351473923,11,11.0,0,3,0.861466885000482,1,0.0554824470000312
2,4,38,4.56852607709751,11,10.0,-1,3,1.38091037300001,-1,0.200730837001174
2,4,39,3.92997732426304,11,11.0,0,3,0.9346123790001,1,0.0351240740001231
2,4,40,4.24780045351474,11,11.0,0,3,0.687784550000288,1,0.0888296339999215
2,4,41,4.30004535147392,11,10.0,-1,3,0.827780314999472,-1,0.0951072499992733
2,4,42,1.65732426303855,11,5.0,-6,1,0.662772863999635,-1,0.0726743970008101
2,4,43,3.84580498866213,11,11.0,0,3,0.533383329999197,1,0.0834862619994965
2,4,44,3.25079365079365,11,9.0,-2,3,0.755016981998779,1,0.0650769080002647
2,4,45,3.86321995464853,11,10.0,-1,3,0.952798469001209,1,0.0168975189990306
2,4,46,4.49160997732426,11,13.0,2,3,0.59150586800024,1,0.0515661999997974
2,4,47,3.60780045351474,11,10.0,-1,3,0.778250760000446,-1,0.0860662849991058
2,4,48,2.83283446712018,11,7.0,-4,1,0.799644939001155,-1,0.0818956700004492
2,4,49,4.15637188208617,11,11.0,0,1,1.65827923500001,1,0.584482045000186
2,4,50,4.09977324263039,11,11.0,0,2,0.484964700999626,1,0.333521562000897
2,4,51,4.15927437641723,11,11.0,0,3,0.517174258000523,1,0.221236118999514
2,4,52,4.47709750566893,11,11.0,0,3,0.476582343999326,1,0.0170386480003799
2,4,53,4.46258503401361,11,11.0,0,3,0.390834484998777,1,0.0755329120001988
2,4,54,3.54249433106576,11,10.0,-1,1,0.485403941000186,1,0.190313388000504
2,4,55,4.43356009070295,11,11.0,0,3,0.395322613001554,1,0.0561639930001547
2,4,56,4.37551020408163,11,11.0,0,3,0.299533470000824,1,0.0662865759986744
2,4,57,3.61795918367347,11,10.0,-1,3,1.05798223300008,-1,0.016571608999584
2,4,58,4.08090702947846,11,11.0,0,3,0.456446344998767,1,0.632760055999825
2,4,59,4.64399092970522,11,11.0,0,3,1.37906871900122,1,0.0159985549998964
2,4,60,3.87918367346939,11,10.0,-1,3,0.961683432999052,-1,0.166824576999716
2,4,61,3.64988662131519,11,10.0,-1,2,1.10614295999949,1,0.375061728998844
2,4,62,5.28979591836735,11,11.0,0,3,0.427503924998746,1,0.166617355000199
2,4,63,2.07092970521542,11,6.0,-5,1,1.37555759700081,-1,0.290745099999185
2,4,64,4.28843537414966,11,11.0,0,1,1.34384374100046,-1,36.8120359970017
2,4,65,4.33487528344671,11,11.0,0,3,1.33751099300025,1,0.998757446001036
2,4,66,4.3871201814059,11,11.0,0,2,0.521863418000066,-1,0.35908629900041
2,4,67,4.99954648526077,11,12.0,1,2,0.867901343000995,1,0.340526017000229
2,4,68,4.69043083900227,11,11.0,0,2,1.26682835300016,1,0.47970623800029
2,4,69,5.60326530612245,11,13.0,2,1,1.76850473599916,-1,0.15632274500058
2,4,70,4.34648526077097,11,12.0,1,3,1.22482663499977,1,0.0892262770012167
2,4,71,4.43210884353741,11,11.0,0,2,1.38753277100113,1,0.016766632999861
2,4,72,4.30730158730159,11,11.0,0,2,1.860352478001,1,0.866464874001394
2,4,73,1.40335600907029,11,5.0,-6,1,1.48382714800027,-1,34.9943614259992
2,4,74,3.94448979591837,11,11.0,0,1,1.89765920999889,-1,0.0169754569997167
2,4,75,4.31020408163265,11,11.0,0,3,0.781489400000282,1,0.135546629999226
2,4,76,4.62222222222222,11,11.0,0,3,0.614145793000716,1,0.0166736089995538
2,4,77,3.69922902494331,11,11.0,0,3,1.27400154300085,1,0.0169578330005606
2,4,78,4.22748299319728,11,11.0,0,3,0.509329201000583,1,0.131298759000856
2,4,79,4.30875283446712,11,11.0,0,3,0.451851698999235,1,0.158604280000873
2,4,80,5.24625850340136,11,12.0,1,3,0.891119457999594,-1,0.0168290580004395
2,4,81,3.58458049886621,11,10.0,-1,2,0.638945966999017,-1,0.103284632001305
2,4,82,4.00399092970522,11,11.0,0,3,0.676565449000918,-1,0.0525146959989797
3,3,1,9.03111111111111,19,22.0,3,2,1.23519540599955,-1,1.4436573869898
3,3,2,9.62757369614513,19,25.0,6,2,1.83789279298799,1,0.15071394800907
3,3,3,7.58566893424036,19,18.0,-1,3,2.57880535899312,-1,0.195112485002028
3,3,4,10.7551927437642,19,26.0,7,1,1.41299481500755,1,0.212720367999282
3,3,5,8.89759637188209,19,22.0,3,2,0.740011625006446,1,0.172064707992831
3,3,6,10.6231292517007,19,26.0,7,1,0.870035521002137,1,0.325165532995015
3,3,7,8.00362811791383,19,20.0,1,2,0.726196745003108,1,0.195571578005911
3,3,8,7.30267573696145,19,19.0,0,1,1.6139730480063,1,0.352288616006263
3,3,9,8.81632653061224,19,21.0,2,2,0.783707941998728,1,0.396979719997034
3,3,10,6.72362811791383,19,17.0,-2,1,1.58219392900355,-1,0.0165538389992435
3,3,11,15.4049886621315,19,37.0,18,1,1.81563836500573,1,0.735750238993205
3,3,12,7.58421768707483,19,19.0,0,2,0.504283567992388,1,0.0481288169976324
3,3,13,7.22285714285714,19,18.0,-1,2,0.375493106999784,1,0.0177729589922819
3,3,14,8.60154195011338,19,21.0,2,2,7.81634577800287,1,0.132194662000984
3,3,15,9.61886621315193,19,24.0,5,2,0.450799971993547,1,0.0171280759968795
3,3,16,9.7015873015873,19,23.0,4,1,0.497833440007525,1,0.319843199991737
3,3,17,13.1700680272109,19,33.0,14,1,0.71934975500335,1,0.335204178001732
3,3,18,7.32009070294785,19,19.0,0,2,0.979211826008395,1,0.574074040996493
3,3,19,8.30113378684807,19,20.0,1,2,5.42694876600581,1,1.5039607630024
3,3,20,8.79891156462585,19,23.0,4,2,0.42904597800225,1,0.0164245499909157
3,3,21,7.96009070294785,19,20.0,1,1,0.939026759995613,1,0.35214480200375
3,3,22,10.7421315192744,19,26.0,7,2,1.39009667899518,1,0.104545855996548
3,3,23,8.540589569161,19,20.0,1,2,7.19321601300908,1,0.0827561299956869
3,3,24,11.7463945578231,19,28.0,9,1,0.843479545001173,1,0.444990199990571
3,3,25,9.24154195011338,19,22.0,3,2,3.14523067300615,-1,1.43714925000677
3,3,26,13.4298412698413,19,34.0,15,1,0.908457514000474,1,0.291346159996465
3,3,27,8.75392290249433,19,22.0,3,2,0.98248839500593,1,0.104243832000066
3,3,28,16.4961224489796,19,NAN,980,1,1.17059024800255,1,0.150587239986635
3,3,29,8.20244897959184,19,20.0,1,2,1.77812415799417,-1,0.330789255007403
3,3,30,10.4039909297052,19,28.0,9,2,1.04642581898952,-1,0.070151045001694
3,3,31,9.96571428571429,19,25.0,6,2,0.500761971998145,-1,0.068547839007806
3,3,32,6.96743764172336,19,18.0,-1,2,0.705305252995458,-1,0.133822236006381
3,3,33,10.7842176870748,19,28.0,9,2,0.503021117998287,-1,0.0228302939940477
3,3,34,15.316462585034,19,36.0,17,2,0.612010094992002,1,0.0783541590062669
3,3,35,10.0019954648526,19,24.0,5,2,0.430337081998005,1,0.01790855199215
3,3,36,10.4852607709751,19,28.0,9,1,0.490375093999319,1,0.0167766220110934
3,3,37,11.9524716553288,19,31.0,12,2,0.678506661002757,1,0.016473550000228
3,3,38,7.90204081632653,19,20.0,1,3,0.7434987930028,-1,0.0526891589979641
3,3,39,7.96879818594104,19,20.0,1,2,0.811233963002451,-1,0.0864399540005252
3,3,40,11.982947845805,19,29.0,10,1,0.478834510009619,1,0.030830899006105
3,3,41,9.56371882086168,19,24.0,5,1,0.483377773998654,1,0.0191828219976742
3,3,42,7.97605442176871,19,20.0,1,2,0.589625692999107,1,0.226643681002315
3,3,43,7.45650793650794,19,20.0,1,2,0.763386678008828,-1,0.0179101249959785
3,3,44,8.41142857142857,19,21.0,2,2,0.576902085012989,1,0.0162690750003094
3,3,45,9.97587301587302,19,25.0,6,1,0.543355632005841,1,0.0349717050121399
3,3,46,6.8324716553288,19,16.0,-3,2,0.919474562004325,-1,0.0748319400008768
3,3,47,8.69587301587302,19,21.0,2,2,1.640517627995,1,0.623489181001787
3,3,48,10.1427664399093,19,27.0,8,2,1.41922525600239,-1,0.0176907169952756
3,3,49,10.0368253968254,19,26.0,7,2,0.61718005099101,1,0.0160271230124636
3,3,50,15.6342857142857,19,38.0,19,1,0.493143362997216,1,0.476392584008863
3,3,51,8.18068027210884,19,21.0,2,2,0.518761195009574,1,0.0165133099944796
3,3,52,9.66675736961451,19,24.0,5,2,1.42932750300679,1,0.199307388000307
3,3,53,11.5446712018141,19,30.0,11,1,0.434843770999578,1,0.0373228499956895
3,3,54,8.63201814058957,19,24.0,5,2,2.31065177900018,-1,0.421103517001029
3,3,55,13.4341950113379,19,34.0,15,1,0.368996352000977,1,0.0165699229983147
3,3,56,7.83963718820862,19,20.0,1,2,0.66138612900977,1,1.02820189499471
3,3,57,7.76126984126984,19,20.0,1,1,2.02162573000533,1,0.197532438003691
3,4,1,4.5902947845805,11,12.0,1,2,0.580418290002854,1,0.0162786389992107
3,4,2,4.33922902494331,11,11.0,0,3,0.625687389008817,-1,0.595239810994826
3,4,3,4.34938775510204,11,12.0,1,3,1.26455815200461,1,1.14368559300783
3,4,4,4.35229024943311,11,11.0,0,3,1.0953547389945,1,0.300784660998033
3,4,5,4.81959183673469,11,12.0,1,3,1.19786744599696,1,0.0165061909938231
3,4,6,6.37823129251701,11,16.0,5,2,0.439737504988443,1,0.0165650189883308
3,4,7,3.28417233560091,11,9.0,-2,1,2.13993763100007,-1,0.0166117539920378
3,4,8,4.55981859410431,11,12.0,1,2,2.72148142498918,1,0.158496225005365
3,4,9,0.0058049886621315,11,1.0,-10,1,1.82794275500055,-1,0.371753876999719
3,4,10,3.95319727891156,11,10.0,-1,1,2.28927718699561,-1,5.48536252800841
3,4,11,4.2768253968254,11,12.0,1,1,3.37958721400355,1,0.404505707992939
3,4,12,4.87473922902494,11,12.0,1,2,1.25998627899389,1,0.016369789998862
3,4,13,4.21877551020408,11,11.0,0,2,1.61134903600032,-1,0.0161454469925957
3,4,14,4.55981859410431,11,12.0,1,2,1.41582006000681,1,0.0170051859895466
3,4,15,9.14430839002268,11,23.0,12,1,0.854766333010048,1,0.105062954011373
3,4,16,6.42176870748299,11,17.0,6,1,1.12397794099525,1,0.207898445005412
3,4,17,4.17814058956916,11,11.0,0,2,2.00105718999112,1,0.0342170060030185
3,4,18,4.69913832199546,11,11.0,0,3,0.655318637989694,1,0.695654834999004
3,4,19,4.45387755102041,11,11.0,0,3,1.73659166900325,1,0.147464180001407
3,4,20,4.24054421768707,11,12.0,1,2,1.08217804999731,1,0.136833853001008
3,4,21,5.0009977324263,11,12.0,1,2,1.21914851998736,1,0.0991199970012531
3,4,22,5.12725623582766,11,13.0,2,1,0.94180105200212,1,0.218988252992858
3,4,23,5.51619047619048,11,14.0,3,1,1.25734149799973,1,0.474715570002445
3,4,24,5.11854875283447,11,13.0,2,2,0.813558099995134,1,0.166092838000623
3,4,25,8.51736961451247,11,22.0,11,1,0.425253609995707,1,0.227476132000447
3,4,26,4.02721088435374,11,11.0,0,2,0.722147945998586,1,0.11209907400189
3,4,27,4.45097505668934,11,12.0,1,2,0.830236002992024,1,0.0978821159951622
3,4,28,5.8615873015873,11,14.0,3,2,0.877253515005577,1,0.307124350001686
3,4,29,8.5318820861678,11,21.0,10,1,1.389212020993,1,0.161107292995439
3,4,30,4.3653514739229,11,11.0,0,2,1.1351960059983,1,0.114370822993806
3,4,31,6.27954648526077,11,16.0,5,2,2.24776423900039,1,0.120757666009013
3,4,32,4.71510204081633,11,12.0,1,2,1.64125853599398,1,0.60914781500469
3,4,33,5.40299319727891,11,15.0,4,2,0.730026984994765,1,0.102770337005495
3,4,34,12.8841723356009,11,31.0,20,1,1.51058558801014,1,0.299931374000153
3,4,35,3.9372335600907,11,11.0,0,3,0.560683728996082,-1,0.582207026003744
3,4,36,4.85006802721088,11,12.0,1,2,6.18127056500816,1,0.124853386994801
3,4,37,4.45968253968254,11,11.0,0,3,1.18151949199091,-1,0.0654507279978134
3,4,38,4.8152380952381,11,12.0,1,2,0.522642272000667,1,0.10524074199202
3,4,39,5.60471655328798,11,14.0,3,1,0.459926444993471,1,0.876198621990625
3,4,40,8.63927437641723,11,21.0,10,1,0.403374510002322,1,0.0313588329881895
3,4,41,5.67727891156463,11,14.0,3,2,0.574676417003502,1,0.0175879750022432
3,4,42,5.90512471655329,11,14.0,3,2,0.673857957008295,1,0.0579079639865085
3,4,43,5.12580498866213,11,13.0,2,2,0.397729764998076,1,0.0165612999990117
3,4,44,9.42149659863946,11,23.0,12,1,0.334689267008798,1,0.0444639310007915
3,4,45,11.2007256235828,11,28.0,17,1,0.333755719009787,1,0.0922849839989794
3,4,46,12.424126984127,11,31.0,20,2,0.868322999987868,1,0.0162970530072926
3,4,47,8.43609977324263,11,20.0,9,2,0.463740523002343,-1,0.0165414590010187
3,4,48,4.23473922902494,11,11.0,0,2,0.709115596997435,-1,1.44293339199794
3,4,49,4.39727891156463,11,11.0,0,2,1.40704924300371,-1,0.225154316998669
3,4,50,4.33052154195011,11,11.0,0,3,0.799162426992552,-1,0.163734159999876
3,4,51,4.75863945578231,11,11.0,0,3,0.753863741992973,-1,0.0529487909952877
3,4,52,4.83410430839002,11,11.0,0,3,1.28784017100406,-1,0.238202777007245
3,4,53,4.48,11,12.0,1,3,0.500037200996303,1,0.017549408992636
3,4,54,4.41034013605442,11,11.0,0,3,0.961505176994251,1,0.150851377999061
3,4,55,4.65995464852608,11,12.0,1,2,0.706013191011152,1,0.072672126989346
3,4,56,5.78902494331066,11,15.0,4,1,1.11605485400651,1,0.264576409012079
3,4,57,4.88344671201814,11,12.0,1,2,5.82160415800172,1,0.225849698996171
3,4,58,4.50902494331066,11,11.0,0,2,0.946705979004037,-1,0.0164368770056171
3,4,59,4.66285714285714,11,12.0,1,2,1.0877870520053,-1,0.0164475709898397
3,4,60,4.35083900226757,11,11.0,0,2,1.76097583898809,-1,0.0164251039968804
3,4,61,5.56553287981859,11,13.0,2,2,0.899729387994739,1,0.0163197000074433
3,4,62,5.36235827664399,11,12.0,1,2,0.353113940000185,1,0.0157379269949161
3,4,63,4.58013605442177,11,11.0,0,3,0.451616842998192,1,0.0172498770116363
3,4,64,5.47120181405896,11,14.0,3,2,0.842523613013327,1,0.0439651170017896
3,4,65,8.71038548752835,11,21.0,10,1,0.823153585006366,1,0.113853139991988
3,4,66,3.74131519274376,11,11.0,0,3,0.969567630003439,-1,0.107889835009701
3,4,67,4.43646258503401,11,11.0,0,3,0.85761986199941,-1,0.0175899049936561
3,4,68,4.83120181405896,11,13.0,2,2,1.35386894499243,1,0.0926472709979862
3,4,69,5.21868480725624,11,14.0,3,2,0.544794026995078,1,0.573767509005847
3,4,70,4.55111111111111,11,11.0,0,2,0.573984030997963,1,0.114157923002494
3,4,71,4.29859410430839,11,10.0,-1,2,0.555415998998797,-1,0.232918310008245
3,4,72,4.49451247165533,11,11.0,0,2,0.420733798004221,1,0.0164362520008581
3,4,73,4.67156462585034,11,13.0,2,2,1.03818740800489,1,0.278461718000472
3,4,74,5.12,11,11.0,0,2,0.608784983007354,1,0.130420131012215
3,4,75,4.14621315192744,11,10.0,-1,2,0.945644404011546,-1,0.0152223030017922
3,4,76,4.8021768707483,11,11.0,0,2,0.652923476998694,1,0.0164367299876176
3,4,77,4.71945578231293,11,10.0,-1,2,0.591794611013029,-1,0.131108657995355
3,4,78,4.92408163265306,11,13.0,2,2,1.23002741800155,1,0.392349672998535
3,4,79,6.23310657596372,11,15.0,4,2,0.521775956993224,1,0.110231997998198
3,4,80,4.58739229024943,11,12.0,1,2,0.890424184995936,1,0.146134918002645
3,4,81,5.06340136054422,11,11.0,0,2,0.532347681990359,1,0.21584721301042
3,4,82,4.65269841269841,11,13.0,2,2,0.518160124003771,1,0.0164304479985731
3,4,83,6.95002267573696,11,17.0,6,1,0.61812699699658,1,0.292629192990717
3,4,84,4.87473922902494,11,12.0,1,2,0.399927392994869,1,0.625868950999575
4,3,1,5.84707482993197,11,14.0,3,2,0.459432197996648,1,0.404589781988761
4,3,2,5.59310657596372,11,16.0,5,2,0.489934201003052,1,0.0161146430036752
4,3,3,5.51183673469388,11,14.0,3,3,0.401316827992559,1,0.0162082399911014
4,3,4,5.25351473922902,11,13.0,2,3,0.46252442599507,1,0.0169565579999471
4,3,5,6.34049886621315,11,15.0,4,3,0.338882217998616,1,0.0169582480011741
4,3,6,6.09959183673469,11,15.0,4,2,0.627173995002522,1,0.0169163560058223
4,3,7,4.85297052154195,11,12.0,1,2,0.627571204997366,1,0.228933564008912
4,3,8,2.19718820861678,11,6.0,-5,1,0.68276382300246,-1,0.0160941510112025
4,3,9,4.81959183673469,11,12.0,1,2,0.838612813007785,-1,0.167837993998546
4,3,10,7.01678004535147,11,18.0,7,1,1.27492870698916,1,0.162873281995417
4,3,11,5.41460317460317,11,14.0,3,2,0.436231968007633,-1,0.0161148019979009
4,3,12,5.88480725623583,11,14.0,3,3,0.456164454008103,1,0.01674269499199
4,3,13,6.32308390022676,11,17.0,6,2,0.793623917008517,1,0.0164296750008361
4,3,14,7.27219954648526,11,18.0,7,3,0.473332035006024,1,0.0168271540023852
4,3,15,6.57269841269841,11,16.0,5,1,1.3357233429997,1,0.110137529001804
4,3,16,6.1881179138322,11,15.0,4,1,1.69998701401346,-1,0.015859424995142
4,3,17,6.9471201814059,11,17.0,6,1,1.45639593400119,-1,0.0160625249991426
4,3,18,9.47519274376417,11,23.0,12,3,0.501273677989957,1,0.0162952509999741
4,3,19,7.41297052154195,11,18.0,7,3,0.494758158005425,1,0.365487367002061
4,3,20,6.70331065759637,11,17.0,6,3,1.34229757300636,1,0.362034089994268
4,3,21,7.86575963718821,11,17.0,6,2,0.713323110001511,-1,0.767983267011005
4,3,22,6.21859410430839,11,16.0,5,2,0.279988783993758,-1,0.0475336010131286
4,3,23,2.361179138322,11,6.0,-5,1,0.341002689005109,-1,0.0162670519930543
4,3,24,8.25759637188209,11,20.0,9,1,1.13851564099605,1,0.0714601100044092
4,3,25,7.34766439909297,11,17.0,6,2,0.740269874993828,1,0.506275528998231
4,3,26,8.45061224489796,11,21.0,10,1,0.67468539699621,1,0.659443400989403
4,3,27,8.23437641723356,11,19.0,8,2,0.436640622006962,-1,0.0165580640023109
4,3,28,3.50766439909297,11,9.0,-2,1,0.61240338999778,-1,0.0162245510000503
4,3,29,5.88916099773243,11,15.0,4,2,0.556932320003398,-1,0.14363311699708
4,3,30,6.51755102040816,11,15.0,4,2,0.844474628000171,1,0.0304993059980916
4,3,31,7.59582766439909,11,18.0,7,1,0.541405439988011,1,0.19544797600247
4,3,32,6.01977324263039,11,14.0,3,3,0.673062254994875,-1,0.248293077995186
4,3,33,6.16054421768707,11,15.0,4,2,1.21996776000015,1,0.300627650009119
4,3,34,4.80798185941043,11,13.0,2,1,2.28870063999784,1,0.229833478995715
4,3,35,6.05315192743764,11,15.0,4,1,2.5653874540003,-1,0.0167517049994785
4,3,36,6.11845804988662,11,15.0,4,1,0.90098312900227,1,0.218623492008192
4,3,37,9.30829931972789,11,21.0,10,1,1.24211032499443,1,0.0967843329999596
4,3,38,2.90684807256236,11,8.0,-3,1,0.459862711999449,-1,0.0169001229951391
4,3,39,3.55555555555556,11,10.0,-1,3,0.586625714000547,1,0.0160524620005162
4,3,40,2.8734693877551,11,9.0,-2,3,1.41147540499514,-1,0.0780671749962494
4,3,41,4.58884353741497,11,11.0,0,3,0.87734684899624,1,0.116858487002901
4,3,42,3.79646258503401,11,9.0,-2,2,1.18171187600819,1,0.840658271001303
4,3,43,9.54049886621315,11,24.0,13,1,1.26724905299488,1,0.130870891007362
4,3,44,5.12580498866213,11,12.0,1,3,0.835311144997831,1,0.0161985799932154
4,3,45,4.71800453514739,11,12.0,1,3,0.54242807799892,-1,0.0590404240065254
4,3,46,5.50893424036281,11,13.0,2,2,0.810252502997173,-1,0.0687181090033846
4,3,47,5.26077097505669,11,12.0,1,3,0.418531984003494,1,0.016238770011114
4,3,48,4.44371882086168,11,11.0,0,2,0.719720366003457,-1,0.015837102997466
4,3,49,5.00825396825397,11,13.0,2,1,0.527174167000339,-1,0.0160384769988013
4,3,50,7.41006802721088,11,20.0,9,2,0.769126687999233,1,0.0159529800002929
4,3,51,5.89496598639456,11,16.0,5,3,1.63197177000984,-1,0.13592743499612
4,3,52,2.11736961451247,11,7.0,-4,1,0.146919478997006,-1,1.40939548499591
4,3,53,5.46684807256236,11,13.0,2,2,0.248672645990155,1,0.0356406100036111
4,3,54,5.5437641723356,11,15.0,4,3,0.26887990499381,1,0.0167818659974728
4,3,55,2.59047619047619,11,8.0,-3,2,0.256892593009979,-1,0.0166636110079708
4,3,56,5.79482993197279,11,15.0,4,2,0.188068251998629,1,0.0406818150077015
4,3,57,6.31292517006803,11,16.0,5,2,0.183582092999131,-1,0.586629869008902
4,3,58,6.60607709750567,11,16.0,5,3,0.297062101992196,1,0.0412479399965378
4,3,59,5.23609977324263,11,14.0,3,1,0.254710008986876,-1,0.239455238988739
4,3,60,4.29424036281179,11,12.0,1,1,0.148935022996739,-1,0.0158646700001555
4,3,61,4.30585034013605,11,9.0,-2,2,0.472970511997119,-1,0.0168391659972258
4,3,62,4.68462585034014,11,11.0,0,2,0.586466123000719,1,0.051797013002215
4,3,63,4.40888888888889,11,12.0,1,2,0.312941647993284,1,0.0166427030053455
4,3,64,6.22004535147392,11,15.0,4,1,0.247900322996429,1,0.119308612993336
4,3,65,3.2928798185941,11,9.0,-2,1,0.560105229989858,-1,0.0161495680076769
4,3,66,4.86167800453515,11,13.0,2,2,0.489149636996444,1,0.0251952279941179
4,3,67,6.58140589569161,11,16.0,5,3,0.326356434001355,1,0.016810979010188
4,3,68,2.71528344671202,11,7.0,-4,1,1.0821580060001,-1,0.472967043999233
4,3,69,6.8368253968254,11,17.0,6,2,1.46105061899289,1,0.0821223719976842
4,3,70,6.50448979591837,11,17.0,6,1,0.47823898299248,1,0.0861054289998719
4,3,71,6.97179138321995,11,17.0,6,1,0.804814771996462,-1,0.0160957139887614
4,3,72,6.07201814058957,11,16.0,5,2,0.392624299987801,1,0.0160570769949118
4,3,73,6.54512471655329,11,17.0,6,3,0.344230581002194,1,0.0166021610057214
4,3,74,8.35337868480726,11,22.0,11,3,1.56311313899641,1,0.0165137840085663
4,3,75,3.56716553287982,11,9.0,-2,1,0.115968711994356,-1,0.0168971020029858
4,3,76,7.06467120181406,11,18.0,7,1,0.177114179998171,-1,0.0166324750025524
4,3,77,5.54956916099773,11,15.0,4,2,0.175043679002556,1,0.016053326005931
4,3,78,6.15038548752834,11,15.0,4,2,0.148693998009549,1,0.0165287039999384
4,3,79,6.52335600907029,11,16.0,5,3,0.461109782001586,1,0.0163903170032427
4,3,80,5.53070294784581,11,14.0,3,2,0.677381429995876,1,0.0161702600016724
4,3,81,5.54521541950113,11,13.0,2,1,0.686052878998453,-1,0.0166885429935064
4,3,82,4.18829931972789,11,11.0,0,2,0.538516710992553,1,0.0164940489921719
4,3,83,2.91265306122449,11,7.0,-4,1,0.477750632009702,-1,0.0164541900012409
4,3,84,4.41614512471655,11,11.0,0,2,0.57421081099892,-1,0.0167066120047821
4,3,85,5.64244897959184,11,15.0,4,2,0.587715901012416,1,0.0167661489977036
4,3,86,5.40299319727891,11,14.0,3,3,0.415629046008689,1,0.0167621430009604
4,3,87,5.06340136054422,11,13.0,2,1,0.473839215002954,-1,0.0169800880103139
4,4,1,8.02104308390023,19,22.0,3,2,0.281601446011337,-1,0.0169280569971306
4,4,2,9.15301587301587,19,22.0,3,2,1.06309769199288,1,0.0166704470029799
4,4,3,8.74231292517007,19,21.0,2,1,0.541191664000507,1,0.154438211000524
4,4,4,8.96,19,22.0,3,2,0.518488468005671,-1,0.0162400570116006
4,4,5,7.69886621315193,19,19.0,0,2,0.251660681999056,-1,0.0169980070058955
4,4,6,6.98920634920635,19,18.0,-1,3,0.226694299999508,1,0.0160291299980599
4,4,7,6.6249433106576,19,17.0,-2,3,0.636238944993238,1,0.0164917049987707
4,4,8,3.61215419501134,19,9.0,-10,2,1.00035303599725,-1,0.0167710840032669
4,4,9,9.00934240362812,19,23.0,4,2,0.603459240010125,-1,0.016595259992755
4,4,10,7.55664399092971,19,20.0,1,3,0.891041509996285,1,0.347152125992579
4,4,11,6.32598639455782,19,17.0,-2,3,0.488846029998967,1,0.0159305449924432
4,4,12,6.44353741496599,19,16.0,-3,3,0.533412677003071,-1,1.32128031400498
4,4,13,10.0136054421769,19,25.0,6,3,0.320223014001385,-1,0.126835415008827
4,4,14,10.283537414966,19,27.0,8,1,1.09355103300186,-1,0.0162349999882281
4,4,15,10.0571428571429,19,25.0,6,3,0.493583724004566,1,0.390655574999982
4,4,16,6.59156462585034,19,17.0,-2,1,0.790721515993937,1,0.121266422996996
4,4,17,11.2703854875283,19,31.0,12,2,0.467110330006108,1,0.130488712005899
4,4,18,8.05442176870748,19,21.0,2,2,0.605105641006958,-1,0.0803428939980222
4,4,19,8.2184126984127,19,20.0,1,2,0.682612753997091,1,0.0161250189994462
4,4,20,11.1963718820862,19,27.0,8,2,0.353044200004661,1,0.0161003270040965
4,4,21,9.94104308390023,19,24.0,5,2,0.758968766996986,-1,0.0163091080030426
4,4,22,7.16190476190476,19,17.0,-2,3,0.767361853999319,1,0.0167580740089761
4,4,23,7.66984126984127,19,20.0,1,3,0.595814883010462,-1,0.0170146570017096
4,4,24,10.4591383219955,19,26.0,7,2,0.35280977000366,1,0.0165012540091993
4,4,25,4.97487528344671,19,13.0,-6,1,0.397114398001577,-1,1.58461940700363
4,4,26,9.02820861678005,19,22.0,3,2,0.600096941998345,1,0.016681762994267
4,4,27,8.76988662131519,19,22.0,3,2,0.347154725997825,-1,0.0159709599975031
4,4,28,8.24598639455782,19,21.0,2,2,0.672292303002905,1,0.0167604580055922
4,4,29,12.3501133786848,19,30.0,11,3,0.386693508000462,1,0.0165050780051388
4,4,30,6.6118820861678,19,17.0,-2,1,0.307761321004364,-1,0.0169663289998425
4,4,31,12.070022675737,19,30.0,11,3,0.500218269997276,-1,0.0168131569953403
4,4,32,8.49850340136054,19,21.0,2,1,1.29069947499374,1,0.0586893410072662
4,4,33,8.24163265306122,19,21.0,2,3,0.715410037999391,1,0.0158652800018899
4,4,34,7.3491156462585,19,17.0,-2,1,0.468562687994563,-1,1.06206135998946
4,4,35,9.47809523809524,19,22.0,3,2,0.375946055006352,1,0.0168537760036997
4,4,36,6.17360544217687,19,16.0,-3,2,0.384306231004302,-1,1.07582989000366
4,4,37,12.1962811791383,19,32.0,13,2,0.399567818996729,1,0.0168746019917307
4,4,38,9.76834467120181,19,25.0,6,1,0.423038433000329,1,0.0397903369885171
4,4,39,11.3545578231293,19,27.0,8,1,0.518100176006556,-1,0.0162792940100189
4,4,40,7.32154195011338,19,20.0,1,1,0.351785031001782,1,0.0167321729968535
4,4,41,9.52598639455782,19,25.0,6,2,0.81820056399738,1,0.347629878000589
4,4,42,7.47972789115646,19,18.0,-1,2,0.473125101998448,-1,0.0169580150104593
4,4,43,7.20834467120181,19,20.0,1,3,0.38694897100504,1,0.016050597987487
4,4,44,7.87591836734694,19,19.0,0,3,0.567755611002212,-1,0.108494724001503
4,4,45,6.86294784580499,19,17.0,-2,2,0.463408069001161,1,0.263215252998634
4,4,46,8.72489795918367,19,21.0,2,2,0.300434324992239,1,0.0167403179948451
4,4,47,9.09931972789116,19,24.0,5,1,0.418441404995974,-1,0.0854674440051895
4,4,48,8.30548752834467,19,19.0,0,2,0.827331157008302,-1,0.0161946119915228
4,4,49,10.084716553288,19,25.0,6,2,0.84748293699522,1,0.016363023998565
4,4,50,14.1830385487528,19,36.0,17,1,0.70081991898769,1,0.0518328129983274
4,4,51,4.49596371882086,19,11.0,-8,1,0.395360645998153,-1,0.0160300790012116
4,4,52,10.9220861678005,19,27.0,8,2,0.380184017005377,1,0.0159814060025383
4,4,53,8.57396825396825,19,22.0,3,2,0.566290178001509,1,0.163016072998289
4,4,54,7.08934240362812,19,18.0,-1,2,0.551833885998349,1,0.0161506559961708
4,4,55,7.36507936507936,19,18.0,-1,3,0.51173084799666,1,0.01703023200389
4,4,56,6.67863945578231,19,18.0,-1,3,0.470932834999985,1,0.0168724929972086
4,4,57,7.86575963718821,19,19.0,0,2,0.516708601993741,-1,0.0820530409982894
4,4,58,9.35909297052154,19,22.0,3,2,0.355284174002009,-1,0.0160417970037088
4,4,59,7.9978231292517,19,21.0,2,3,0.19152882299386,-1,1.25952386599965
4,4,60,6.26938775510204,19,16.0,-3,1,0.361746426991886,-1,0.016504671992152
4,4,61,10.8001814058957,19,29.0,10,2,0.36600255301164,-1,0.0161433239991311
4,4,62,8.91065759637188,19,21.0,2,2,0.18219750400749,1,0.0873819739936152
4,4,63,6.09959183673469,19,16.0,-3,2,0.330098929000087,-1,0.0163385400082916
4,4,64,8.37659863945578,19,22.0,3,2,0.467212370000198,-1,1.15438301100221
4,4,65,8.31274376417234,19,19.0,0,3,0.655639430013252,1,0.0382795170007739
4,4,66,9.24009070294785,19,23.0,4,2,0.430933730996912,-1,0.0163816629938083
4,4,67,12.2760997732426,19,30.0,11,2,0.264064467002754,1,0.0160556540067773
5,3,1,8.47528344671202,19,21.0,2,2,1.70986991199607,1,0.963312820997089
5,3,2,9.37650793650794,19,23.0,4,2,0.957051585995941,1,0.311717128992314
5,3,3,9.13124716553288,19,23.0,4,1,0.944935884006554,1,1.62078467900574
5,3,4,11.9524716553288,19,30.0,11,1,0.400962749001337,1,0.403972767002415
5,3,5,8.83954648526077,19,22.0,3,1,1.53680647499277,1,0.307534368010238
5,3,6,10.2690249433107,19,26.0,7,1,2.85897523698804,1,0.416890276988852
5,3,7,9.83365079365079,19,25.0,6,1,1.17411459899449,1,0.290251635000459
5,3,8,7.56825396825397,19,18.0,-1,2,1.1306165450078,1,0.319553192995954
5,3,9,7.57696145124717,19,19.0,0,2,0.821282024990069,1,0.512598441986484
5,3,10,8.91065759637188,19,24.0,5,1,0.715815999006736,1,1.1386088750005
5,3,11,9.89460317460317,19,24.0,5,1,1.39016778199584,1,0.257829878988559
5,3,12,7.9934693877551,19,20.0,1,1,1.77487090199429,1,0.714407920007943
5,3,13,8.92952380952381,19,22.0,3,2,1.83545232200413,1,0.618799709001905
5,3,14,8.32,19,23.0,4,1,1.7707642299938,1,1.14970722400176
5,3,15,9.31265306122449,19,23.0,4,2,0.803327831992647,1,0.32451507699443
5,3,16,9.21251700680272,19,23.0,4,1,0.743463293008972,1,1.51712871498603
5,3,17,7.3578231292517,19,19.0,0,2,1.23367875200347,1,2.71427719701023
5,3,18,9.00353741496599,19,22.0,3,2,2.39068888699694,1,0.792676005992689
5,3,19,8.37804988662132,19,20.0,1,2,1.80845989100635,-1,0.268029626997304
5,3,20,9.26621315192744,19,25.0,6,1,2.05139923900424,1,0.337710588006303
5,3,21,10.373514739229,19,26.0,7,1,0.908116029997473,1,0.514106043003267
5,3,22,8.46802721088435,19,19.0,0,1,1.02769433001231,1,0.380604524994851
5,3,23,7.99637188208617,19,21.0,2,1,0.787966247997247,1,0.910599013004685
5,3,24,7.05886621315193,19,20.0,1,1,0.808101330010686,1,0.531449009999051
5,3,25,6.07927437641723,19,15.0,-4,1,1.15088348501013,-1,0.562488326992025
5,3,26,7.9978231292517,19,18.0,-1,1,0.677803350990871,-1,1.0533034849941
5,3,27,9.21687074829932,19,25.0,6,1,2.18748146000144,1,0.243252125001163
5,3,28,14.4021768707483,19,34.0,15,1,0.333778038009768,1,0.243701191007858
5,3,29,8.98031746031746,19,23.0,4,1,0.412629362996086,1,0.479522145004012
5,3,30,9.52308390022676,19,23.0,4,1,2.20407069299836,1,0.253126056995825
5,3,31,7.70467120181406,19,20.0,1,1,1.06786513800034,1,0.242780455009779
5,3,32,5.92834467120181,19,16.0,-3,1,0.911282952001784,1,0.268398214000626
5,3,33,11.1151020408163,19,29.0,10,2,1.70520904099976,1,0.357015441011754
5,3,34,8.57687074829932,19,22.0,3,1,2.95190175400057,1,0.993874609004706
5,3,35,10.2603174603175,19,24.0,5,3,2.37073362299998,1,0.539802352010156
5,3,36,9.379410430839,19,24.0,5,1,2.11252846400021,1,0.510071305005113
5,3,37,8.33015873015873,19,21.0,2,2,1.48878536000848,1,0.284979778996785
5,3,38,8.15891156462585,19,20.0,1,3,1.39371364700492,1,0.460959599993657
5,3,39,8.50866213151927,19,21.0,2,1,0.581406049008365,1,0.426380545992288
5,3,40,9.44471655328798,19,22.0,3,1,0.383642205997603,-1,0.334017075991142
5,3,41,10.1674376417234,19,24.0,5,1,1.04181247499946,-1,0.449997463001637
5,3,42,8.55510204081633,19,21.0,2,2,1.29767808200268,1,0.20621718998882
5,3,43,8.49414965986394,19,21.0,2,1,0.614714538998669,1,1.23298506399442
5,3,44,6.55963718820862,19,16.0,-3,1,0.997508631000528,-1,0.0888963850011351
5,3,45,9.54195011337868,19,23.0,4,1,1.29170230698946,-1,3.01003434900485
5,3,46,9.12253968253968,19,21.0,2,2,0.884578609999153,1,0.267530410987092
5,3,47,8.29387755102041,19,20.0,1,1,1.7023153110058,1,0.595137598997098
5,3,48,12.1135600907029,19,30.0,11,2,1.00066986400634,1,0.306388215001789
5,3,49,8.05297052154195,19,21.0,2,2,0.988111662998563,-1,0.108532778001972
5,3,50,8.13133786848073,19,19.0,0,3,0.778946874997928,1,0.269691458001034
5,3,51,8.8627664399093,19,21.0,2,1,2.63801381799567,1,0.780287031986518
5,3,52,9.77560090702948,19,23.0,4,1,1.15079241299827,1,0.658945176997804
5,3,53,10.2429024943311,19,26.0,7,1,1.50129544800438,1,1.14882263400068
5,3,54,10.4489795918367,19,25.0,6,1,1.44394642100087,-1,0.619836856989423
5,3,55,14.0422675736961,19,35.0,16,1,0.409122453012969,1,0.140139519993681
5,3,56,7.55664399092971,19,19.0,0,2,1.17928626699722,-1,1.1679907390062
5,3,57,8.47673469387755,19,20.0,1,2,0.452197949998663,-1,0.90852546300448
5,3,58,9.88589569160998,19,25.0,6,1,1.94896153300942,-1,1.18311095998797
5,4,1,4.22458049886621,11,11.0,0,2,1.51290644300752,-1,0.301181472997996
5,4,2,4.34793650793651,11,11.0,0,3,0.430062069004634,1,1.27889434499957
5,4,3,4.13750566893424,11,11.0,0,3,1.65088827999716,-1,0.186452727997676
5,4,4,4.40743764172336,11,12.0,1,2,0.945502620990737,1,0.293519029990421
5,4,5,4.51918367346939,11,11.0,0,2,0.99641491699731,-1,0.902715649994207
5,4,6,4.41904761904762,11,12.0,1,3,1.03757969501021,1,1.32497432699893
5,4,7,5.04308390022676,11,12.0,1,3,0.699644298991188,1,0.290321704000235
5,4,8,4.62657596371882,11,12.0,1,3,2.63316590900649,1,0.320100209006341
5,4,9,4.73541950113379,11,13.0,2,2,0.959635677994811,1,0.604586975998245
5,4,10,4.67156462585034,11,12.0,1,1,0.394711907007149,1,0.40565263699682
5,4,11,5.28253968253968,11,14.0,3,2,0.841799742003786,-1,0.939195354992989
5,4,12,4.7891156462585,11,11.0,0,3,0.494136378998519,1,0.453935245997855
5,4,13,5.28253968253968,11,12.0,1,2,2.44429958000546,1,0.237446376006119
5,4,14,4.45242630385488,11,12.0,1,1,0.645935260996339,-1,0.375210015001358
5,4,15,4.94875283446712,11,14.0,3,1,1.5556723089976,1,0.343066136003472
5,4,16,3.90675736961451,11,11.0,0,1,1.00312886098982,1,0.246827873997972
5,4,17,4.59174603174603,11,12.0,1,1,0.854098427997087,1,0.277343598994776
5,4,18,5.4465306122449,11,14.0,3,2,1.04835654399358,1,0.223691949999193
5,4,19,3.60199546485261,11,11.0,0,1,1.17682161800622,-1,0.27695701700577
5,4,20,4.27827664399093,11,11.0,0,2,0.632479690000764,-1,0.289044571996783
5,4,21,4.7934693877551,11,11.0,0,3,0.558658098001615,1,0.394989634995
5,4,22,4.51337868480726,11,11.0,0,3,0.951284956012387,1,0.452130883000791
5,4,23,4.3740589569161,11,11.0,0,3,0.549109939995105,1,0.0427971110038925
5,4,24,4.0518820861678,11,11.0,0,3,1.58271472199704,1,0.369866277003894
5,4,25,5.2259410430839,11,11.0,0,3,0.74337204900803,1,0.254001444991445
5,4,26,4.94439909297052,11,11.0,0,3,0.510801819007611,1,0.470134456001688
5,4,27,4.78621315192744,11,12.0,1,2,0.65515130100539,1,0.653259168000659
5,4,28,4.18684807256236,11,12.0,1,2,0.492770700991969,1,1.01987572500366
5,4,29,4.06204081632653,11,11.0,0,2,0.598970790000749,1,0.504261610010872
5,4,30,4.19555555555556,11,11.0,0,2,0.931374563006102,1,0.26485351199517
5,4,31,4.73541950113379,11,11.0,0,2,1.45807882399822,-1,0.034098346994142
5,4,32,4.32326530612245,11,12.0,1,2,0.550932113997987,-1,0.228779173005023
5,4,33,4.60190476190476,11,12.0,1,2,0.753746524991584,-1,0.214123514000676
5,4,34,4.59755102040816,11,12.0,1,3,1.03118607700162,1,0.152130910006235
5,4,35,4.70784580498866,11,12.0,1,2,2.02680139598669,1,0.603637420994346
5,4,36,5.13160997732426,11,12.0,1,2,0.801951615998405,1,0.276504816996749
5,4,37,4.9037641723356,11,11.0,0,2,0.833864255007938,-1,1.49115052100387
5,4,38,4.76299319727891,11,12.0,1,2,1.18457307000062,-1,1.26618383001187
5,4,39,5.20997732426304,11,13.0,2,2,1.36254771900713,1,0.341487983008847
5,4,40,4.10557823129252,11,10.0,-1,2,0.829669323007693,1,0.527580023001065
5,4,41,6.04299319727891,11,16.0,5,2,5.77368596900487,1,1.40440493400092
5,4,42,5.11274376417234,11,12.0,1,2,1.68321271399327,1,0.289408654003637
5,4,43,4.80507936507937,11,11.0,0,3,0.706835225006216,-1,0.864504099998157
5,4,44,4.13895691609977,11,11.0,0,3,1.00692334200721,1,0.567525195001508
5,4,45,4.65269841269841,11,12.0,1,3,0.549403455006541,1,0.251128394011175
5,4,46,4.55691609977324,11,11.0,0,3,1.25856284699694,1,0.402585634001298
5,4,47,4.61206349206349,11,12.0,1,3,0.663665346000926,1,0.407554208009969
5,4,48,4.55691609977324,11,12.0,1,3,0.616789305000566,1,0.369514922000235
5,4,49,4.80943310657596,11,12.0,1,3,0.565990485003567,1,0.304562236997299
5,4,50,4.80072562358277,11,13.0,2,3,0.644408416002989,1,0.252235716994619
5,4,51,4.74993197278912,11,13.0,2,3,0.424110780004412,1,0.203952459007269
5,4,52,5.82820861678005,11,14.0,3,3,0.654879110996262,1,1.03911713299749
5,4,53,6.05895691609977,11,15.0,4,2,1.36052043300879,1,0.469391363993054
5,4,54,6.84843537414966,11,17.0,6,1,0.433956102002412,1,0.514703361986903
5,4,55,4.51918367346939,11,11.0,0,2,1.38832374200865,1,1.51141394999286
5,4,56,5.03292517006803,11,12.0,1,1,1.69570125899918,-1,1.68548752000788
5,4,57,6.24471655328798,11,14.0,3,1,0.545679649003432,1,1.23812721499417
5,4,58,4.61206349206349,11,13.0,2,1,0.881099934995291,1,0.297721616996569
5,4,59,4.62802721088435,11,12.0,1,2,1.81060266499117,-1,0.707732773007592
5,4,60,4.51337868480726,11,11.0,0,2,0.854785892996006,-1,0.631231427003513
5,4,61,4.33922902494331,11,11.0,0,2,1.0737834879983,-1,1.02532894200704
5,4,62,4.22748299319728,11,12.0,1,2,0.854575440011104,1,1.07090668501041
5,4,63,4.87038548752834,11,13.0,2,2,0.882452046003891,1,0.482662206995883
5,4,64,4.74557823129252,11,13.0,2,2,0.455665465007769,1,0.288109261993668
5,4,65,5.02421768707483,11,13.0,2,1,1.38273557000502,1,0.313231891006581
5,4,66,4.68462585034014,11,12.0,1,1,0.594900730007794,1,0.22123279600055
5,4,67,5.40734693877551,11,13.0,2,1,0.502108561995556,1,0.285499180987244
5,4,68,6.37387755102041,11,15.0,4,1,0.70923840800242,1,0.242956243004301
5,4,69,6.06766439909297,11,15.0,4,1,0.709549282997614,1,0.378588079998735
5,4,70,4.8152380952381,11,12.0,1,1,0.601809521001996,1,0.277159859993844
5,4,71,4.41469387755102,11,11.0,0,1,0.697481718991185,1,0.191730872000335
5,4,72,4.51047619047619,11,12.0,1,1,0.70492241300235,1,0.215194958000211
5,4,73,4.71510204081633,11,11.0,0,1,1.17096504000074,1,0.0460320400015917
5,4,74,4.66430839002268,11,12.0,1,3,1.44832580200455,1,0.895728711009724
5,4,75,5.9718820861678,11,15.0,4,3,0.790307447008672,1,0.864748977997806
5,4,76,4.66285714285714,11,12.0,1,3,2.44495529201231,1,0.979323262989055
5,4,77,5.21433106575964,11,13.0,2,3,0.494236840007943,1,0.286123744997894
5,4,78,4.97052154195011,11,11.0,0,2,0.832523977005621,1,0.23301640599675
5,4,79,4.91972789115646,11,14.0,3,3,1.43419824400917,1,0.466037403006339
5,4,80,4.69478458049887,11,11.0,0,3,0.499361159992986,1,0.144496999011608
5,4,81,4.28263038548753,11,12.0,1,3,0.392333420008072,1,0.235980045006727
5,4,82,5.1156462585034,11,13.0,2,3,0.429873329994734,1,0.152139520010678
5,4,83,4.37551020408163,11,11.0,0,3,0.503310307991342,1,0.14164442299807
5,4,84,4.73687074829932,11,12.0,1,3,0.632500139996409,1,0.386823416003608
5,4,85,4.36680272108844,11,11.0,0,3,0.554125016991748,1,0.270092587001272
5,4,86,4.74848072562358,11,12.0,1,3,0.496724162003375,1,0.21537164899928
5,4,87,4.87619047619048,11,12.0,1,3,0.508697333003511,1,0.0981891370029189
5,4,88,4.81378684807256,11,11.0,0,3,0.837005175009836,-1,0.893775839998852
5,4,89,4.32616780045351,11,12.0,1,2,0.934014803002356,1,0.945859129991732
6,3,1,5.0053514739229,11,12.0,1,3,1.48594554999727,1,0.493731252005091
6,3,2,4.75718820861678,11,12.0,1,3,0.64688934001606,1,1.56065270799445
6,3,3,5.31156462585034,11,14.0,3,2,0.902058322011726,1,1.61293255200144
6,3,4,5.73823129251701,11,14.0,3,2,1.1225874699885,1,0.0165674170129932
6,3,5,4.19555555555556,11,11.0,0,2,0.788328964001266,1,0.0169133809977211
6,3,6,3.40172335600907,11,9.0,-2,2,0.884728326986078,-1,0.292692687973613
6,3,7,4.30149659863946,11,10.0,-1,2,0.725567638990469,-1,0.180085207015509
6,3,8,4.97777777777778,11,13.0,2,2,0.481309860013425,-1,1.18520297200303
6,3,9,5.51764172335601,11,14.0,3,2,0.615764545014827,-1,0.0642902919789776
6,3,10,4.58448979591837,11,11.0,0,3,0.902474649017677,1,1.93228671600809
6,3,11,6.08362811791383,11,15.0,4,3,1.84149171999888,1,0.0732551419932861
6,3,12,4.038820861678,11,11.0,0,3,0.887961824017111,-1,0.911969709006371
6,3,13,5.07210884353742,11,14.0,3,2,0.988687091012252,1,0.343071514012991
6,3,14,4.49596371882086,11,12.0,1,2,2.01079002898769,-1,1.96283588401275
6,3,15,5.59746031746032,11,13.0,2,2,1.02768475099583,-1,0.623405063000973
6,3,16,5.28108843537415,11,14.0,3,2,1.3846870699781,-1,1.56386538301012
6,3,17,4.62222222222222,11,13.0,2,2,0.816961442003958,1,0.0159829089825507
6,3,18,5.32027210884354,11,13.0,2,2,0.80494306399487,1,0.600132309016772
6,3,19,4.4930612244898,11,11.0,0,2,0.809744733007392,-1,0.379478893999476
6,3,20,3.21886621315193,11,9.0,-2,2,0.708639870019397,-1,0.58903759700479
6,3,21,5.04598639455782,11,14.0,3,2,1.35005531299976,1,0.0652611260011327
6,3,22,5.31301587301587,11,14.0,3,2,0.994987330021104,-1,0.542108387016924
6,3,23,4.76444444444444,11,12.0,1,2,1.27277050499106,1,0.104154864005977
6,3,24,3.81968253968254,11,10.0,-1,2,1.13062625599559,-1,0.0635152219911106
6,3,25,3.13034013605442,11,9.0,-2,2,0.665773880988127,-1,0.588359579996904
6,3,26,4.22893424036281,11,11.0,0,1,0.965087709017098,1,0.505358010996133
6,3,27,3.42349206349206,11,10.0,-1,1,1.06783141000778,1,0.0165698080090806
6,3,28,4.36244897959184,11,11.0,0,2,1.43401933301357,-1,0.567727034998825
6,3,29,4.26086167800454,11,11.0,0,2,0.502119957003742,-1,0.016857701994013
6,3,30,4.44662131519274,11,11.0,0,2,0.525565461983206,1,0.0274150940240361
6,3,31,4.20281179138322,11,11.0,0,2,0.442700459971093,1,1.34721408999758
6,3,32,4.55836734693878,11,12.0,1,2,0.38887373599573,1,0.585558466002112
6,3,33,4.60190476190476,11,11.0,0,2,0.477263415989,1,0.0763777699903585
6,3,34,4.31020408163265,11,12.0,1,2,0.616461751022143,-1,0.0978461609920487
6,3,35,4.8065306122449,11,12.0,1,2,0.592970795027213,1,0.779763809987344
6,3,36,5.20126984126984,11,14.0,3,2,0.540365915017901,1,0.304501195001649
6,3,37,4.66866213151927,11,12.0,1,2,0.682974613009719,-1,0.95666205798625
6,3,38,5.34204081632653,11,13.0,2,2,0.534111743996618,1,0.124840185977519
6,3,39,7.10095238095238,11,18.0,7,1,0.905745508003747,1,0.343381438986398
6,3,40,5.82240362811791,11,13.0,2,2,0.82665508199716,1,0.437528979004128
6,3,41,4.30585034013605,11,10.0,-1,2,0.538406510022469,-1,0.0166691039921716
6,3,42,5.5524716553288,11,15.0,4,2,0.802675212995382,1,0.016786891996162
6,3,43,5.02421768707483,11,12.0,1,2,0.470845550007652,-1,0.183533325995086
6,3,44,4.54820861678005,11,11.0,0,2,0.48144104401581,-1,0.598338711017277
6,3,45,4.4930612244898,11,13.0,2,2,0.489887577015907,1,0.431679781002458
6,3,46,4.30294784580499,11,12.0,1,2,0.494898365985136,1,0.446037969988538
6,3,47,4.78040816326531,11,12.0,1,2,0.40371817201958,-1,0.359179733000929
6,3,48,4.66430839002268,11,12.0,1,2,0.426651223999215,1,0.0765347760170698
6,3,49,4.18829931972789,11,11.0,0,2,0.438983333006036,1,0.0813951339805499
6,3,50,3.71664399092971,11,11.0,0,2,0.390710324019892,1,0.258244269993156
6,3,51,3.75873015873016,11,10.0,-1,2,0.369042185979197,1,0.0163361110026017
6,3,52,2.97360544217687,11,9.0,-2,2,0.585647517000325,-1,0.396144797996385
6,3,53,0.82140589569161,11,3.0,-8,1,1.88751567900181,-1,0.485753411980113
6,3,54,4.5815873015873,11,11.0,0,2,0.685360219998984,-1,0.189687859994592
6,3,55,3.92562358276644,11,10.0,-1,2,0.574587308015907,-1,0.194604206015356
6,3,56,5.43492063492064,11,13.0,2,2,0.331785282003693,1,0.168566050007939
6,3,57,4.71655328798186,11,13.0,2,2,0.575169744988671,1,0.531455521995667
6,3,58,5.55972789115646,11,13.0,2,2,0.581923372985329,1,0.168038136005634
6,3,59,4.38566893424036,11,12.0,1,2,1.09222250501625,1,0.212164349999512
6,3,60,3.76888888888889,11,10.0,-1,2,0.842058832990006,1,0.309621811989928
6,3,61,3.73115646258503,11,9.0,-2,2,0.442658640007721,1,0.16374495398486
6,3,62,5.09678004535147,11,12.0,1,2,0.611014313006308,1,0.334723628009669
6,3,63,4.82975056689342,11,12.0,1,2,0.75540783899487,1,0.063830503000645
6,3,64,4.98793650793651,11,13.0,2,2,0.627670738002053,1,0.247522997000488
6,3,65,4.14766439909297,11,11.0,0,2,0.271097923978232,1,0.190090093994513
6,3,66,5.12,11,13.0,2,2,1.03611943600117,1,1.2609212739917
6,3,67,3.96625850340136,11,10.0,-1,2,0.523697263997747,-1,0.569942553993315
6,3,68,3.69922902494331,11,10.0,-1,2,1.04781465799897,-1,0.0166919130133465
6,3,69,4.94149659863946,11,12.0,1,2,0.627605995017802,1,0.453338407009142
6,3,70,5.40154195011338,11,14.0,3,2,1.02224536400172,1,1.17741049599135
6,3,71,3.90240362811791,11,10.0,-1,2,0.814977932022884,-1,0.194875384011539
6,3,72,3.86176870748299,11,10.0,-1,2,0.538400778983487,-1,0.0170635069953278
6,3,73,4.14621315192744,11,12.0,1,2,0.807570412987843,-1,1.08825684900512
6,3,74,4.51192743764172,11,11.0,0,3,0.647683818999212,1,0.585495603008894
6,3,75,4.32616780045351,11,12.0,1,2,1.0675700760039,1,1.45907576498576
6,3,76,3.57587301587302,11,10.0,-1,2,0.75904200898367,1,0.157129608996911
6,3,77,4.66430839002268,11,11.0,0,3,0.779758084012428,1,0.503797387005761
6,3,78,3.99963718820862,11,11.0,0,2,0.903754627011949,-1,0.0312502029992174
6,3,79,4.899410430839,11,13.0,2,2,0.84193810497527,-1,1.55490247000125
6,3,80,5.04308390022676,11,12.0,1,2,0.43379574699793,1,0.337986794998869
6,3,81,4.72526077097506,11,12.0,1,2,0.309595681028441,1,0.101667370996438
6,3,82,3.48589569160998,11,10.0,-1,2,0.441236042999662,1,1.50732644597883
6,3,83,3.23482993197279,11,9.0,-2,2,0.55454279499827,-1,0.254495027998928
6,3,84,3.80517006802721,11,11.0,0,2,0.753177007980412,1,0.133862535993103
6,3,85,3.64263038548753,11,9.0,-2,2,0.790788575977786,-1,0.257108457997674
6,3,86,2.92571428571429,11,8.0,-3,2,0.811632477998501,-1,4.31732617801754
6,3,87,4.19410430839002,11,11.0,0,2,0.885180442972342,-1,0.182289276010124
6,3,88,4.19845804988662,11,10.0,-1,2,0.683458038984099,1,0.378030862979358
6,3,89,4.84861678004535,11,13.0,2,2,0.397575211012736,-1,0.185382180003216
6,3,90,4.40163265306122,11,11.0,0,2,0.762285666976823,-1,0.0166436550207436
6,3,91,3.92997732426304,11,10.0,-1,2,0.789484239998274,1,0.0169453429989517
6,3,92,4.22312925170068,11,11.0,0,3,1.22613152599661,1,2.97300963697489
6,3,93,3.96480725623583,11,10.0,-1,2,1.91064670399646,-1,0.041973023005994
6,3,94,4.45242630385488,11,12.0,1,2,1.11031788602122,1,0.016682535992004
6,3,95,4.22167800453515,11,11.0,0,3,1.10525651698117,1,2.66884465297335
6,4,1,6.91809523809524,19,16.0,-3,2,0.811278558016056,-1,0.997799855016638
6,4,2,7.33024943310658,19,19.0,0,2,0.425787903019227,-1,0.0380801080027595
6,4,3,5.20272108843537,19,14.0,-5,2,0.770856713992544,-1,0.199198905989761
6,4,4,6.46965986394558,19,16.0,-3,2,0.748250855976949,1,0.36056697400636
6,4,5,7.97170068027211,19,20.0,1,2,0.382556233002106,1,0.904127369984053
6,4,6,6.34340136054422,19,15.0,-4,2,0.578369196009589,1,0.102305439999327
6,4,7,6.841179138322,19,17.0,-2,2,0.704295614996227,-1,0.0873640119971242
6,4,8,6.89342403628118,19,16.0,-3,2,0.513724429998547,-1,0.286677990021417
6,4,9,7.65242630385488,19,19.0,0,2,0.330735369003378,1,0.745839014998637
6,4,10,8.92662131519274,19,23.0,4,2,0.291546226013452,1,1.58200028099236
6,4,11,8.8584126984127,19,22.0,3,2,0.607946261996403,1,0.146934252989013
6,4,12,8.07328798185941,19,21.0,2,2,0.453147849999368,1,0.598733966005966
6,4,13,8.19229024943311,19,19.0,0,2,0.399441644985927,-1,0.0739540609938558
6,4,14,7.06902494331066,19,17.0,-2,2,0.322346967994235,-1,0.761918712989427
6,4,15,6.42467120181406,19,18.0,-1,2,0.422588469984476,1,0.410357432003366
6,4,16,8.34467120181406,19,20.0,1,2,0.493277611996746,-1,0.841861266992055
6,4,17,6.74539682539683,19,20.0,1,2,0.370282427989878,1,0.143264021986397
6,4,18,7.39265306122449,19,18.0,-1,2,0.306983893009601,1,0.498221502988599
6,4,19,6.85859410430839,19,18.0,-1,2,0.475554637989262,-1,1.00470211097854
6,4,20,6.55383219954648,19,17.0,-2,2,0.693660115997773,-1,0.333054290997097
6,4,21,7.75256235827664,19,20.0,1,2,1.58535813601338,1,0.365304765000474
6,4,22,10.2820861678005,19,25.0,6,2,0.494865541986655,1,0.504326690017479
6,4,23,7.78013605442177,19,18.0,-1,2,0.62011732000974,-1,0.709804985002847
6,4,24,9.08625850340136,19,22.0,3,2,0.504371382005047,1,1.96556150799734
6,4,25,7.65823129251701,19,20.0,1,2,0.516396991995862,1,0.434593871992547
6,4,26,8.82503401360544,19,22.0,3,2,0.592183036991628,-1,0.317169843008742
6,4,27,8.15455782312925,19,19.0,0,2,0.424438535992522,-1,0.812006927997572
6,4,28,9.81913832199547,19,24.0,5,2,0.394633359013824,1,0.326708886015695
6,4,29,8.70748299319728,19,20.0,1,2,0.897348933009198,-1,0.765730707003968
6,4,30,10.0237641723356,19,25.0,6,2,0.210980207979446,1,0.0159854009980336
6,4,31,7.0487074829932,19,19.0,0,2,0.317409134004265,1,0.276032944006147
6,4,32,9.56081632653061,19,24.0,5,2,0.508214314002544,-1,0.32315047798329
6,4,33,10.0905215419501,19,25.0,6,2,0.442692990996875,-1,0.395946190983523
6,4,34,7.37378684807256,19,20.0,1,2,0.469856982992496,-1,0.246970000996953
6,4,35,7.9978231292517,19,20.0,1,2,0.393892092019087,-1,0.0611957410001196
6,4,36,9.63047619047619,19,24.0,5,2,0.780215612991014,1,0.0468437970266677
6,4,37,9.76979591836735,19,24.0,5,2,0.433588820975274,-1,0.163399348006351
6,4,38,13.2963265306122,19,32.0,13,2,0.259635050984798,1,0.148894664016552
6,4,39,10.4533333333333,19,27.0,8,2,0.296634456986794,1,0.0161827859992627
6,4,40,7.52616780045352,19,18.0,-1,2,0.577081553987227,-1,0.141599704016699
6,4,41,8.17052154195011,19,22.0,3,2,0.899761827022303,1,0.0834916790190618
6,4,42,9.29378684807256,19,22.0,3,2,0.266047873999923,-1,0.0158861490199342
6,4,43,12.7056689342404,19,31.0,12,2,0.213513711001724,1,0.016311618994223
6,4,44,13.6881632653061,19,32.0,13,2,0.191853076015832,1,0.0279387609916739
6,4,45,14.6039002267574,19,35.0,16,2,0.241260148002766,-1,0.812039279000601
6,4,46,10.8959637188209,19,27.0,8,2,0.166453414014541,-1,0.154695803998038
6,4,47,11.2602267573696,19,27.0,8,2,0.425063294998836,-1,0.0169093669974245
6,4,48,10.8437188208617,19,29.0,10,2,0.275129819987342,1,2.2755094919994
6,4,49,7.76126984126984,19,21.0,2,2,0.745196931995451,1,0.294954589975532
6,4,50,9.19655328798186,19,23.0,4,2,0.284574697026983,1,0.980341140006203
6,4,51,8.98176870748299,19,22.0,3,2,0.482309559010901,1,0.259389871003805
6,4,52,10.814693877551,19,26.0,7,2,0.416473605000647,1,0.403935871989233
6,4,53,12.2078911564626,19,31.0,12,2,0.315460963989608,-1,0.857511831010925
6,4,54,13.4443537414966,19,34.0,15,2,0.696701988985296,1,0.0164728930103593
6,4,55,10.1921088435374,19,24.0,5,2,0.381055446021492,1,0.384939474985003
6,4,56,10.2849886621315,19,26.0,7,2,0.285681447014213,-1,0.924656837014481
6,4,57,10.7363265306122,19,28.0,9,2,0.364215224981308,1,0.0161395739996806
6,4,58,16.1130158730159,19,NAN,980,1,2.8936614629929,1,0.170902710000519
6,4,59,8.52607709750567,19,21.0,2,2,1.16203691897681,1,0.758489148982335
6,4,60,6.99936507936508,19,18.0,-1,3,0.899508342001354,-1,3.1806005879771
6,4,61,6.34195011337868,19,16.0,-3,3,1.18502967400127,-1,0.4912649350008
6,4,62,9.39537414965986,19,23.0,4,2,0.765275258017937,-1,0.881026464019669
7,3,1,6.03718820861678,19,15.0,-4,2,1.6904642659938,1,1.96973199094646
7,3,2,6.8281179138322,19,16.0,-3,2,1.4547529410338,1,0.784028980997391
7,3,3,7.36507936507936,19,17.0,-2,2,1.43666780705098,1,0.948878370923921
7,3,4,7.82657596371882,19,18.0,-1,2,1.30714948498644,1,0.663600359926932
7,3,5,6.51755102040816,19,16.0,-3,2,1.70961619494483,-1,0.755821813014336
7,3,6,6.03283446712018,19,16.0,-3,3,1.06001628993545,-1,0.413693581009284
7,3,7,7.23156462585034,19,18.0,-1,2,1.48945577500854,1,0.848322232952341
7,3,8,3.37995464852608,19,8.0,-11,1,1.88526462600566,-1,0.674125839024782
7,3,9,5.97768707482993,19,14.0,-5,2,1.23817928496283,-1,0.646673562936485
7,3,10,5.24045351473923,19,12.0,-7,2,0.706817246973515,-1,0.752795643988065
7,3,11,3.21596371882086,19,8.0,-11,1,1.31459495704621,-1,0.343831924954429
7,3,12,5.2390022675737,19,14.0,-5,2,1.30301452602725,1,0.797662290045992
7,3,13,8.51591836734694,19,21.0,2,1,1.50049038103316,1,2.0097354700556
7,3,14,5.70195011337869,19,15.0,-4,2,1.11885459092446,1,1.21345867891796
7,3,15,8.77569160997732,19,22.0,3,2,3.40988304594066,1,0.905358687974513
7,3,16,6.65832199546485,19,16.0,-3,2,1.33138417406008,-1,0.2873611029936
7,3,17,8.39981859410431,19,20.0,1,2,1.72297863708809,1,2.22377813595813
7,3,18,8.36063492063492,19,19.0,0,2,1.55431844596751,-1,1.11626250005793
7,3,19,5.99510204081633,19,14.0,-5,2,1.87697608501185,-1,0.700650152051821
7,3,20,5.52344671201814,19,15.0,-4,1,3.55271656706464,-1,0.432608946925029
7,3,21,6.69170068027211,19,16.0,-3,2,1.33441236999352,-1,0.747267455095425
7,3,22,5.65696145124717,19,14.0,-5,2,1.31913371500559,-1,0.941886372980662
7,3,23,5.27673469387755,19,14.0,-5,1,1.71715351601597,1,2.44230210990645
7,3,24,0.706757369614513,19,2.0,-17,1,1.73097059200518,-1,0.4466270620469
7,3,25,8.18213151927438,19,21.0,2,1,1.09150295692962,1,0.899504716973752
7,3,26,4.15056689342404,19,11.0,-8,2,1.18063658091705,-1,0.87953918101266
7,3,27,5.30285714285714,19,14.0,-5,2,2.87792603799608,1,0.474474878050387
7,3,28,5.72081632653061,19,15.0,-4,2,1.22844148206059,1,0.373888436006382
7,3,29,6.1881179138322,19,17.0,-2,2,1.07094738201704,1,1.01573480002116
7,3,30,5.06920634920635,19,13.0,-6,2,0.665598741034046,-1,0.474097292986698
7,3,31,5.52780045351474,19,14.0,-5,2,1.04664169810712,1,0.44000874098856
7,3,32,4.96616780045351,19,13.0,-6,1,1.28222033102065,-1,1.05614553100895
7,3,33,5.79047619047619,19,14.0,-5,2,3.65455571201164,-1,0.348314914968796
7,3,34,7.50439909297052,19,18.0,-1,1,1.41066224197857,1,0.774538493948057
7,3,35,5.99655328798186,19,15.0,-4,2,1.39832106593531,-1,0.326822088100016
7,3,36,5.96462585034014,19,15.0,-4,2,1.48654101102147,-1,1.33337659202516
7,3,37,8.50140589569161,19,22.0,3,2,2.91594808001537,1,0.840015457943082
7,3,38,6.17795918367347,19,16.0,-3,3,1.02190905099269,-1,2.59030984097626
7,3,39,5.92544217687075,19,16.0,-3,2,0.38653548900038,-1,0.0162130490643904
7,3,40,6.66122448979592,19,17.0,-2,2,1.47153242502827,-1,0.34399379696697
7,3,41,8.01814058956916,19,20.0,1,2,0.73511694802437,1,0.764102202025242
7,3,42,5.07210884353742,19,13.0,-6,2,0.325193961034529,-1,0.35553623503074
7,3,43,5.73678004535147,19,15.0,-4,2,1.27124575001653,-1,0.781896205036901
7,3,44,9.42730158730159,19,23.0,4,2,5.27366779500153,1,0.79748659604229
7,3,45,2.8952380952381,19,8.0,-11,1,1.66924867301714,-1,0.444650538964197
7,3,46,7.05015873015873,19,18.0,-1,2,1.23014984594192,-1,0.382284326013178
7,3,47,6.42467120181406,19,16.0,-3,2,1.02860576799139,-1,0.511429887032136
7,3,48,6.59736961451247,19,16.0,-3,2,1.18361327098683,-1,0.466055213939399
7,3,49,8.37079365079365,19,21.0,2,2,0.500780805945396,1,1.21125503291842
7,3,50,5.55102040816327,19,13.0,-6,2,3.41907402907964,-1,0.336889235069975
7,3,51,7.07918367346939,19,17.0,-2,2,2.17978169803973,-1,0.557319042971358
7,3,52,7.89043083900227,19,19.0,0,2,0.938846693024971,1,0.488150422926992
7,3,53,1.86049886621315,19,5.0,-14,1,0.374944037990645,-1,0.314889945089817
7,3,54,5.37106575963719,19,14.0,-5,2,0.933174684992991,1,0.705168277025223
7,3,55,7.1633560090703,19,18.0,-1,2,1.14595459902193,1,0.35951489303261
7,3,56,6.1968253968254,19,15.0,-4,1,6.07038959302008,-1,1.12103963899426
7,3,57,3.53959183673469,19,9.0,-10,2,1.2822446830105,1,0.994376144954003
7,3,58,2.84444444444444,19,8.0,-11,2,0.955940746003762,-1,0.407864605891518
7,3,59,3.86176870748299,19,10.0,-9,2,0.974267115001567,1,0.370949936914258
7,3,60,3.81678004535147,19,10.0,-9,2,2.87675637903158,1,0.874925238080323
7,3,61,3.11292517006803,19,8.0,-11,2,1.37281704891939,-1,0.327675026026554
7,3,62,4.8152380952381,19,12.0,-7,2,1.28114371991251,1,0.950807054992765
7,3,63,3.23773242630385,19,8.0,-11,2,0.676786281983368,-1,0.860157037037425
7,3,64,3.7340589569161,19,10.0,-9,2,1.60451699094847,-1,0.381492739077657
7,3,65,4.54965986394558,19,11.0,-8,1,1.92120040103327,1,1.02051973296329
7,3,66,2.77768707482993,19,8.0,-11,2,1.13933837995864,-1,0.416971995960921
7,3,67,1.79229024943311,19,5.0,-14,1,0.744059554999694,-1,0.348802556050941
7,3,68,3.25659863945578,19,9.0,-10,1,0.970617152983323,-1,0.356439110008068
7,3,69,4.64544217687075,19,11.0,-8,2,1.42124437901657,1,0.774800520041026
7,3,70,2.04480725623583,19,6.0,-13,1,2.73725105205085,-1,0.268160204985179
7,3,71,4.58448979591837,19,11.0,-8,2,1.68582874606363,1,0.549145198077895
7,3,72,2.93587301587302,19,7.0,-12,2,0.701324617955834,-1,0.859866318991408
7,3,73,3.07664399092971,19,8.0,-11,2,0.925684696994722,1,0.555595946032554
7,3,74,4.2550566893424,19,11.0,-8,1,1.87741152499802,1,0.876859996002167
7,3,75,5.1330612244898,19,12.0,-7,2,1.07940022903495,1,0.663814869942144
7,3,76,3.81387755102041,19,10.0,-9,1,1.0404826849699,-1,0.432742884964682
7,4,1,2.59773242630386,11,7.0,-4,2,4.50079742597882,-1,0.878199377097189
7,4,2,4.28553287981859,11,10.0,-1,2,0.737546546035446,1,0.726578956004232
7,4,3,3.77614512471655,11,9.0,-2,2,1.17332206410356,-1,0.296372863929719
7,4,4,2.35972789115646,11,7.0,-4,2,1.10869905701838,-1,0.417686318047345
7,4,5,4.07655328798186,11,10.0,-1,2,2.66061529493891,1,0.546341564971954
7,4,6,4.5946485260771,11,11.0,0,2,2.91049231693614,1,1.31355404108763
7,4,7,3.39011337868481,11,8.0,-3,2,1.37622429500334,-1,0.443054216913879
7,4,8,3.39591836734694,11,8.0,-3,2,0.969409701996483,-1,0.69354670192115
7,4,9,4.49015873015873,11,11.0,0,2,0.988069087965414,1,0.429621704970486
7,4,10,4.72526077097506,11,12.0,1,1,1.31607314501889,1,0.872890330967493
7,4,11,4.74267573696145,11,12.0,1,1,1.0511882280698,1,0.387759678997099
7,4,12,3.38430839002268,11,9.0,-2,2,1.44589300500229,-1,0.302701862063259
7,4,13,3.30013605442177,11,9.0,-2,3,0.993905528099276,-1,5.23002771195024
7,4,14,3.84725623582766,11,10.0,-1,2,0.319601155933924,-1,0.710065133986063
7,4,15,9.26185941043084,11,22.0,11,1,0.96937440300826,1,1.03738444205374
7,4,16,4.28263038548753,11,11.0,0,1,1.14295928308275,1,0.700104349991307
7,4,17,3.01714285714286,11,8.0,-3,2,0.375139394891448,-1,0.31564011098817
7,4,18,3.67600907029478,11,9.0,-2,2,1.81626918399706,-1,0.39227543596644
7,4,19,3.61795918367347,11,9.0,-2,2,0.454416738008149,-1,0.349222265998833
7,4,20,3.38140589569161,11,8.0,-3,2,2.08074970601592,-1,0.384593266993761
7,4,21,4.36680272108844,11,10.0,-1,2,0.327879148069769,1,0.303231191006489
7,4,22,3.61215419501134,11,10.0,-1,2,1.55584236292634,1,0.398244600044563
7,4,23,2.93006802721088,11,8.0,-3,2,3.48082795797382,-1,0.0159501200541854
7,4,24,3.32625850340136,11,9.0,-2,2,1.57449306105264,-1,0.376649079960771
7,4,25,3.92126984126984,11,11.0,0,2,1.63554580905475,1,0.892544509028085
7,4,26,3.03455782312925,11,8.0,-3,2,1.49076745798811,-1,0.553593415999785
7,4,27,3.05632653061224,11,9.0,-2,2,0.497709791990928,-1,0.479397778050043
7,4,28,6.30421768707483,11,15.0,4,1,0.978845755918883,1,1.22278120496776
7,4,29,4.47274376417234,11,11.0,0,2,0.820492487051524,-1,0.670511459000409
7,4,30,2.87492063492064,11,7.0,-4,1,0.889623486902565,-1,0.472791641019285
7,4,31,4.76734693877551,11,12.0,1,2,0.603532036067918,1,0.734549599001184
7,4,32,4.45242630385488,11,11.0,0,2,0.886551172006875,1,0.429986460017972
7,4,33,4.0475283446712,11,10.0,-1,1,2.3615175470477,1,1.00341326999478
7,4,34,3.05632653061224,11,7.0,-4,2,1.14474182191771,-1,0.374121529050171
7,4,35,4.84281179138322,11,11.0,0,2,0.566086458973587,-1,0.786401905003004
7,4,36,4.03446712018141,11,10.0,-1,1,2.29667318309657,1,0.686416232027113
7,4,37,3.60054421768707,11,9.0,-2,2,0.565184299019165,-1,0.753497236059047
7,4,38,1.5049433106576,11,4.0,-7,1,1.42807964596432,-1,0.301174622960389
7,4,39,3.36399092970522,11,8.0,-3,2,0.797615027055144,-1,0.352959692012519
7,4,40,3.48154195011338,11,10.0,-1,2,2.30614784709178,-1,0.390070286928676
7,4,41,3.63972789115646,11,9.0,-2,2,0.983030574047007,1,0.361760806990787
7,4,42,2.91265306122449,11,8.0,-3,2,0.553120013093576,-1,0.415452732006088
7,4,43,3.77614512471655,11,8.0,-3,1,1.09644200396724,1,0.774823348969221
7,4,44,3.23773242630385,11,8.0,-3,2,1.00635711406358,-1,0.553084613988176
7,4,45,3.75873015873016,11,9.0,-2,2,0.730851105996408,-1,0.526837310055271
7,4,46,3.69777777777778,11,11.0,0,2,1.1651974839624,1,0.762186177074909
7,4,47,3.61795918367347,11,9.0,-2,2,1.80102647899184,1,0.786038519931026
7,4,48,4.30149659863946,11,11.0,0,2,1.14800412789918,1,0.757886840961874
7,4,49,3.13324263038549,11,8.0,-3,2,1.5297267769929,-1,0.655907794949599
7,4,50,3.23482993197279,11,8.0,-3,2,0.887467419961467,-1,0.565805958001874
7,4,51,3.60199546485261,11,10.0,-1,2,1.05209587200079,1,0.461341083981097
7,4,52,3.59619047619048,11,9.0,-2,2,0.89244956697803,1,0.45900933095254
7,4,53,3.83274376417234,11,10.0,-1,2,1.03413051797543,1,1.21191285795067
7,4,54,2.69351473922903,11,8.0,-3,2,1.28544171096291,-1,0.355597981950268
7,4,55,3.23628117913832,11,8.0,-3,3,0.847540121991187,-1,1.34961228491738
7,4,56,4.00544217687075,11,11.0,0,2,1.13155314396136,1,0.87341980705969
7,4,57,2.64707482993197,11,7.0,-4,2,1.31380501505919,-1,0.488276934018359
7,4,58,1.01151927437642,11,3.0,-8,1,1.22205836197827,-1,0.448865843005478
7,4,59,3.79210884353741,11,9.0,-2,2,1.65163011499681,-1,0.52236308704596
7,4,60,3.39301587301587,11,9.0,-2,2,0.298044038005173,1,0.728736815042794
7,4,61,3.99963718820862,11,10.0,-1,2,0.550864318036474,1,0.923208680003881
7,4,62,3.07664399092971,11,9.0,-2,2,1.79184118099511,-1,0.386140094953589
7,4,63,2.89668934240363,11,7.0,-4,2,0.26557326503098,-1,0.378327339072712
7,4,64,3.0897052154195,11,7.0,-4,2,0.350608977023512,-1,0.661222886992618
7,4,65,4.57868480725624,11,12.0,1,2,0.732248234911822,1,0.378147960989736
7,4,66,3.06503401360544,11,9.0,-2,2,0.287236487027258,-1,0.0562365140067413
7,4,67,4.02285714285714,11,12.0,1,2,0.567341590067372,1,0.475352312903851
7,4,68,3.08244897959184,11,9.0,-2,2,0.343874050071463,-1,0.372278764960356
7,4,69,2.6528798185941,11,7.0,-4,2,0.440474500996061,-1,0.202326328027993
7,4,70,4.58884353741497,11,12.0,1,1,0.814035560004413,1,0.456166655058041
7,4,71,3.15791383219955,11,8.0,-3,2,0.236141316010617,-1,0.389673146069981
7,4,72,3.78485260770975,11,9.0,-2,2,0.294513338943943,1,0.303926608059555
7,4,73,2.66448979591837,11,7.0,-4,2,0.234326810925268,-1,0.72309744998347
7,4,74,5.80353741496599,11,16.0,5,1,1.0020237310091,1,0.787004258017987
7,4,75,2.74285714285714,11,7.0,-4,2,0.618670967058279,1,0.509646934922785
7,4,76,4.27392290249433,11,11.0,0,1,2.96627533109859,1,0.870290265069343
7,4,77,2.83718820861678,11,7.0,-4,2,0.471290473011322,-1,0.871211402001791
7,4,78,3.52072562358277,11,9.0,-2,2,0.315328625030816,-1,0.633388201938942
7,4,79,2.37859410430839,11,6.0,-5,2,0.259827892994508,-1,0.36643066292163
7,4,80,5.16063492063492,11,12.0,1,2,1.912045028992,1,0.516740893013775
7,4,81,3.45832199546485,11,10.0,-1,1,1.65424413897563,-1,0.268777169054374
7,4,82,3.13614512471655,11,8.0,-3,2,0.312076000031084,-1,0.60636338905897
7,4,83,4.86603174603175,11,11.0,0,2,4.44074400793761,1,0.492474643047899
7,4,84,1.82421768707483,11,5.0,-6,1,0.303179388050921,-1,0.486422666930594
7,4,85,3.65859410430839,11,9.0,-2,2,2.89221988804638,1,1.18496546696406
7,4,86,2.78784580498866,11,7.0,-4,2,0.280512396944687,-1,0.65643030195497
7,4,87,3.23192743764172,11,9.0,-2,1,0.952312311041169,1,0.787903726100922
7,4,88,4.17668934240363,11,11.0,0,1,0.629711311077699,1,0.598300800076686
7,4,89,3.56861678004535,11,10.0,-1,2,0.778209900017828,1,1.27105010498781
7,4,90,1.31918367346939,11,3.0,-8,1,0.479742828058079,-1,0.381739421049133
7,4,91,4.09687074829932,11,11.0,0,2,2.39868318696972,1,0.430953348986804
7,4,92,2.84879818594104,11,7.0,-4,2,0.39247839001473,-1,0.563402445055544
7,4,93,3.7253514739229,11,9.0,-2,2,1.9636032350827,1,0.469177589984611
7,4,94,2.88362811791383,11,7.0,-4,2,0.345884350012057,-1,0.272071824991144
7,4,95,3.5265306122449,11,9.0,-2,1,0.957981708925217,-1,0.369521291926503
7,4,96,4.23038548752834,11,10.0,-1,1,3.21743082697503,1,0.841796524939127
7,4,97,3.75582766439909,11,10.0,-1,2,0.456964715034701,-1,0.659538797917776
7,4,98,3.49895691609977,11,9.0,-2,3,1.24081836699042,1,0.816991089959629
7,4,99,3.19709750566893,11,8.0,-3,2,1.0972877650056,-1,0.494167109020054
8,3,1,7.77578231292517,19,17.0,-2,2,1.6136417259695,-1,0.438952340045944
8,3,2,7.40571428571429,19,18.0,-1,3,1.31265335495118,-1,1.09358432202134
8,3,3,7.90204081632653,19,19.0,0,2,1.03354946407489,-1,0.225834270939231
8,3,4,7.62775510204082,19,19.0,0,2,1.32933740795124,-1,0.615134316962212
8,3,5,5.08662131519274,19,13.0,-6,2,1.27865251898766,-1,0.269059095066041
8,3,6,4.94149659863946,19,13.0,-6,1,1.49698175908998,-1,0.644660058896989
8,3,7,10.1906575963719,19,22.0,3,3,1.03496695600916,-1,0.524734199978411
8,3,8,15.8116099773243,19,NAN,980,1,3.46604918199591,1,0.991271034930833
8,3,9,9.56807256235828,19,23.0,4,2,0.773598070023581,-1,0.640477748005651
8,3,10,16.2699319727891,19,39.0,20,3,0.963880504947156,1,0.505365014076233
8,3,11,9.19365079365079,19,23.0,4,3,0.854396468028426,-1,0.311360180028714
8,3,12,1.57315192743764,19,4.0,-15,1,0.610817858017981,-1,1.19619855296332
8,3,13,9.52308390022676,19,22.0,3,3,0.317842782940716,-1,0.467992300982587
8,3,14,7.69160997732426,19,18.0,-1,2,1.19739523995668,-1,0.237976273987442
8,3,15,6.25342403628118,19,16.0,-3,3,0.260237550013699,-1,0.547918385011144
8,3,16,3.37705215419501,19,8.0,-11,1,0.302413008059375,-1,0.213426069938578
8,3,17,10.9148299319728,19,27.0,8,2,1.44518612499814,1,0.188891200930811
8,3,18,9.6130612244898,19,24.0,5,3,1.58260118996259,1,0.623230418073945
8,3,19,9.72625850340136,19,25.0,6,3,0.641933549079113,1,0.589161348063499
8,3,20,7.22430839002268,19,17.0,-2,2,0.499259363976307,1,0.240997247048654
8,3,21,7.84544217687075,19,19.0,0,2,0.619354691938497,-1,0.317377215018496
8,3,22,12.3472108843537,19,31.0,12,3,1.12408581597265,1,0.159510124009103
8,3,23,9.24734693877551,19,24.0,5,2,0.705193339032121,1,0.744298508972861
8,3,24,9.17333333333333,19,22.0,3,2,0.282925138017163,1,0.17952217895072
8,3,25,7.53052154195011,19,20.0,1,3,0.987084770924412,1,0.366567353950813
8,3,26,7.6843537414966,19,18.0,-1,2,0.643380259978585,-1,0.308640734991059
8,3,27,9.32136054421769,19,23.0,4,3,0.306983557064086,1,1.35343710402958
8,3,28,2.10430839002268,19,6.0,-13,1,0.735728417057544,-1,0.0167274249251932
8,3,29,4.77024943310658,19,13.0,-6,2,0.770183284999803,-1,0.0380556100280955
8,3,30,6.03428571428571,19,16.0,-3,2,0.714316618046723,-1,0.370156798977405
8,3,31,9.04272108843537,19,24.0,5,3,1.2813273279462,-1,0.287920118076727
8,3,32,7.878820861678,19,19.0,0,3,0.506088985945098,1,0.0167851520236582
8,3,33,9.42004535147392,19,25.0,6,3,0.326102512073703,-1,0.219496567035094
8,3,34,7.81206349206349,19,20.0,1,2,0.600165497977287,-1,0.307043739943765
8,3,35,7.92380952380952,19,20.0,1,3,0.304118504980579,-1,0.367572980001569
8,3,36,7.31863945578231,19,19.0,0,3,0.285896776942536,1,0.437979227048345
8,3,37,12.8798185941043,19,32.0,13,1,0.283394560916349,1,1.47662773705088
8,3,38,9.50131519274376,19,25.0,6,3,0.325019293930382,-1,0.163059276994318
8,3,39,9.68417233560091,19,25.0,6,3,1.63442378502805,1,0.0158741129562259
8,3,40,8.0950566893424,19,21.0,2,2,0.427053621038795,-1,0.692490001907572
8,3,41,5.65115646258503,19,14.0,-5,1,0.203296854975633,-1,0.0163865730864927
8,3,42,11.0962358276644,19,27.0,8,3,0.309841444017366,-1,0.717847544001415
8,3,43,6.95437641723356,19,17.0,-2,2,1.46436336694751,-1,0.462789384066127
8,3,44,8.6552380952381,19,23.0,4,3,0.245490401051939,-1,0.439118092996068
8,3,45,10.7334240362812,19,25.0,6,3,0.62573246692773,-1,0.523856882937253
8,3,46,8.37804988662132,19,21.0,2,3,0.330473211011849,1,0.399426891002804
8,3,47,1.96353741496599,19,5.0,-14,1,0.279084002948366,-1,0.0481922890758142
8,3,48,0.72562358276644,19,2.0,-17,1,2.27998106891755,-1,0.9357428799849
8,3,49,10.24,19,25.0,6,3,1.69022942997981,-1,0.0169696300290525
8,3,50,9.55065759637188,19,25.0,6,3,0.166966740041971,1,1.02701076504309
8,3,51,9.54920634920635,19,25.0,6,2,1.24245944200084,1,0.344954713946208
8,3,52,9.04852607709751,19,22.0,3,3,1.54835452395491,1,0.46535226108972
8,3,53,7.61324263038549,19,18.0,-1,3,0.948999329935759,-1,0.310665719909593
8,3,54,13.2948752834467,19,33.0,14,3,0.461383164045401,1,1.1658573950408
8,3,55,9.45487528344671,19,25.0,6,2,0.563383630011231,-1,0.473025197046809
8,3,56,12.644716553288,19,31.0,12,3,1.31208705808967,1,0.63629859208595
8,3,57,15.8592290249433,19,38.0,19,2,0.697000006097369,1,0.240934956003912
8,3,58,10.4620408163265,19,25.0,6,3,1.13415093102958,-1,0.45043435995467
8,3,59,15.5747845804989,19,39.0,20,2,0.375113844987936,1,0.24962922395207
8,3,60,10.4126984126984,19,27.0,8,2,1.0208335010102,-1,0.653353060013615
8,3,61,12.0903401360544,19,29.0,10,3,0.232569050043821,1,0.657176790991798
8,3,62,9.48825396825397,19,23.0,4,3,0.384442382026464,-1,1.49986439303029
8,4,1,4.96907029478458,11,14.0,3,3,0.546456784009933,1,0.238610906992108
8,4,2,8.04571428571429,11,20.0,9,3,0.335215885075741,-1,0.246508762938902
8,4,3,5.39138321995465,11,14.0,3,3,0.542202171985991,-1,0.0166844789637253
8,4,4,7.63065759637188,11,18.0,7,3,0.335018621990457,1,0.156351984944195
8,4,5,1.82131519274376,11,5.0,-6,1,0.164474424906075,-1,0.600263694068417
8,4,6,11.430022675737,11,29.0,18,1,1.4353559439769,1,0.715877264970914
8,4,7,9.1718820861678,11,23.0,12,3,0.66464688105043,1,0.769808560027741
8,4,8,6.84988662131519,11,17.0,6,3,0.239284003037028,1,1.00770258402918
8,4,9,6.14458049886621,11,15.0,4,2,0.264869641978294,1,0.0324223319767043
8,4,10,9.2647619047619,11,22.0,11,2,0.85169776994735,1,0.363684769021347
8,4,11,8.01523809523809,11,20.0,9,3,0.813940681051463,1,1.39115136105102
8,4,12,7.05451247165533,11,15.0,4,2,0.872078042011708,-1,0.406817435054109
8,4,13,10.2124263038549,11,25.0,14,1,2.13957440794911,1,0.44713628210593
8,4,14,6.95582766439909,11,18.0,7,3,1.02898971701507,-1,1.61342966603115
8,4,15,5.53215419501134,11,14.0,3,2,1.49404762207996,-1,0.634718571091071
8,4,16,9.15156462585034,11,22.0,11,2,1.27470415900461,1,0.298893705941737
8,4,17,10.4707482993197,11,28.0,17,3,0.759469455922954,-1,0.492429012083448
8,4,18,8.57396825396825,11,21.0,10,2,1.37664359598421,-1,1.17854725709185
8,4,19,4.2507029478458,11,11.0,0,3,1.20459072699305,-1,1.8052769950591
8,4,20,5.14467120181406,11,12.0,1,3,1.14197970204987,1,0.297810023999773
8,4,21,6.48997732426304,11,16.0,5,3,1.46767117793206,1,0.31589199998416
8,4,22,4.30875283446712,11,11.0,0,2,0.654265315039083,-1,1.230654705083
8,4,23,4.69478458049887,11,12.0,1,3,0.11388303199783,-1,1.35985401109792
8,4,24,4.63238095238095,11,13.0,2,2,0.617138620000333,1,0.771176946000196
8,4,25,4.39582766439909,11,12.0,1,2,0.605933789978735,1,0.255055994028226
8,4,26,5.16934240362812,11,13.0,2,2,0.848949709092267,1,0.904179794015363
8,4,27,1.49043083900227,11,5.0,-6,1,0.138319874997251,-1,0.0164088279707357
8,4,28,1.05215419501134,11,3.0,-8,1,0.19790357502643,-1,0.393855531932786
8,4,29,1.02167800453515,11,3.0,-8,1,0.47803016693797,-1,0.0164054519264027
8,4,30,7.42167800453515,11,20.0,9,3,0.261130508966744,1,0.447564544039778
8,4,31,6.67138321995465,11,16.0,5,2,0.538336088997312,1,0.632205019937828
8,4,32,4.51047619047619,11,11.0,0,2,1.71659763494972,-1,0.449517593951896
8,4,33,4.48580498866213,11,10.0,-1,3,1.09406635293271,-1,1.21454237599391
8,4,34,4.06204081632653,11,10.0,-1,2,1.63547512504738,-1,0.619758603046648
8,4,35,5.71791383219955,11,13.0,2,3,0.846847081091255,1,1.7668852400966
8,4,36,5.42331065759637,11,15.0,4,2,0.663990386994556,1,0.184074379969388
8,4,37,12.1367800453515,11,30.0,19,2,1.29152742098086,1,0.233867733972147
8,4,38,6.80634920634921,11,18.0,7,2,0.955123518011533,1,0.232719952007756
8,4,39,9.41133786848073,11,23.0,12,1,0.966520559974015,1,0.352368688909337
8,4,40,4.82249433106576,11,12.0,1,3,0.321579704992473,1,0.0960301290033385
8,4,41,5.14176870748299,11,13.0,2,2,1.06591613299679,1,0.170783075969666
8,4,42,4.31020408163265,11,10.0,-1,2,1.2078200558899,-1,0.521483812946826
8,4,43,1.84163265306122,11,6.0,-5,1,0.453613494057208,-1,0.390919074998237
8,4,44,5.31156462585034,11,14.0,3,3,0.387705251923762,1,0.601123301079497
8,4,45,5.84126984126984,11,15.0,4,2,0.630018644034863,1,0.182107339962386
8,4,46,6.77006802721088,11,17.0,6,2,0.945888187037781,-1,0.742616738076322
8,4,47,4.18539682539683,11,11.0,0,3,0.642510564997792,-1,0.676201540976763
8,4,48,4.60625850340136,11,12.0,1,2,0.942578312009573,1,0.324214805965312
8,4,49,6.01687074829932,11,14.0,3,2,1.17206471192185,-1,0.953299226937816
8,4,50,6.9209977324263,11,19.0,8,2,0.998322676983662,1,0.295899439021014
8,4,51,6.66557823129252,11,16.0,5,1,1.06650019506924,1,0.112071965937503
8,4,52,5.44072562358277,11,14.0,3,2,0.39258574298583,1,0.21360132296104
8,4,53,5.34784580498866,11,13.0,2,2,0.635875949985348,1,0.10955314594321
8,4,54,7.02113378684807,11,17.0,6,2,1.40206866303924,1,0.212163684074767
8,4,55,4.5728798185941,11,12.0,1,2,1.01128930307459,-1,1.90229210502002
8,4,56,4.95891156462585,11,12.0,1,2,0.603615463944152,-1,0.308565640007146
8,4,57,6.3956462585034,11,16.0,5,3,0.68691632093396,1,0.285842448007315
8,4,58,7.74820861678005,11,20.0,9,2,0.662283533019945,1,0.797479653963819
8,4,59,5.92399092970522,11,14.0,3,2,1.05977462802548,1,0.268394590937532
8,4,60,5.86739229024943,11,14.0,3,2,0.771056364988908,1,3.174358873046
8,4,61,5.59020408163265,11,14.0,3,3,0.708511329023167,1,1.03612005407922
8,4,62,4.36825396825397,11,12.0,1,2,2.0564859790029,-1,0.487374308984727
8,4,63,5.20126984126984,11,14.0,3,3,0.287898340029642,-1,0.601514889975078
8,4,64,3.60344671201814,11,9.0,-2,3,0.242403956013732,-1,0.434967322973534
8,4,65,4.32471655328798,11,11.0,0,2,0.545079635921866,1,0.182416440919042
8,4,66,4.41759637188209,11,12.0,1,3,0.855625756899826,1,1.3992529339157
8,4,67,4.05333333333333,11,11.0,0,3,0.299375316943042,-1,0.635201349970885
8,4,68,5.80643990929705,11,14.0,3,2,0.84758755506482,1,0.238938412046991
8,4,69,4.34648526077097,11,11.0,0,3,0.285767656052485,-1,0.730661538080312
8,4,70,5.6540589569161,11,14.0,3,2,0.988404387957416,1,0.182441930985078
8,4,71,5.18385487528345,11,13.0,2,1,0.359836130985059,1,1.38670874701347
8,4,72,5.39863945578231,11,13.0,2,3,0.284106904058717,1,0.523680051905103
8,4,73,6.12861678004535,11,15.0,4,2,1.01540078304242,1,0.866561725968495
8,4,74,6.01832199546485,11,17.0,6,2,0.839004792971537,-1,1.35841962997802
8,4,75,5.2346485260771,11,13.0,2,3,0.28293696406763,-1,0.145955360960215
8,4,76,0.505034013605442,11,2.0,-9,1,0.277878644061275,-1,0.149183703004383
8,4,77,5.31446712018141,11,14.0,3,1,2.25865753705148,-1,0.225138439098373
8,4,78,3.85015873015873,11,10.0,-1,2,4.73004855704494,-1,0.381113133975305
8,4,79,6.93260770975057,11,16.0,5,2,0.485700313001871,-1,0.62125110195484
8,4,80,3.91981859410431,11,10.0,-1,3,0.821954368031584,-1,0.91970994498115
8,4,81,4.85297052154195,11,14.0,3,3,0.26770129299257,-1,0.419498916016892
8,4,82,3.97786848072562,11,10.0,-1,3,0.523272115038708,-1,0.0875202479073778
9,3,1,4.92843537414966,11,13.0,2,3,2.62135700008366,-1,0.411784630035982
9,3,2,4.53950113378685,11,12.0,1,1,1.20380197896156,-1,0.0166454259306192
9,3,3,4.46839002267574,11,12.0,1,3,0.901083738077432,1,0.0523173309629783
9,3,4,3.7384126984127,11,10.0,-1,2,0.153647323022597,1,0.280073756002821
9,3,5,4.44517006802721,11,11.0,0,2,0.815746102016419,-1,0.0161032309988514
9,3,6,5.40879818594104,11,14.0,3,2,0.241310406010598,1,0.016571567975916
9,3,7,4.50612244897959,11,12.0,1,2,0.231795642059296,1,0.0164549499750137
9,3,8,5.95156462585034,11,15.0,4,2,0.237228685989976,1,0.350975312991068
9,3,9,5.58439909297052,11,14.0,3,2,0.498615519958548,1,0.705318924039602
9,3,10,6.54512471655329,11,17.0,6,1,0.19039646605961,-1,0.281279420014471
9,3,11,6.18231292517007,11,15.0,4,2,0.210047206957825,1,0.045713956002146
9,3,12,5.42040816326531,11,13.0,2,1,0.26307182200253,-1,0.0163793389219791
9,3,13,5.34784580498866,11,14.0,3,1,0.219874070957303,1,0.0166365249315277
9,3,14,6.40725623582766,11,16.0,5,2,0.181620653020218,1,0.015838052961044
9,3,15,3.86031746031746,11,11.0,0,1,0.243765360908583,-1,4.21324521000497
9,3,16,6.53496598639456,11,17.0,6,2,0.259090068051592,1,0.0168505379697308
9,3,17,8.16036281179138,11,20.0,9,3,0.177301628980786,1,1.90226802800316
9,3,18,5.78612244897959,11,15.0,4,3,0.166276882053353,1,0.0577669099438936
9,3,19,6.08072562358277,11,15.0,4,3,0.145301524898969,1,0.016415984951891
9,3,20,5.61052154195011,11,15.0,4,2,0.224180473014712,1,0.0583775610430166
9,3,21,7.32589569160998,11,19.0,8,2,0.174939463031478,1,0.0431457570521161
9,3,22,7.86866213151927,11,18.0,7,2,0.0584053329657763,1,0.0831857139710337
9,3,23,7.11981859410431,11,18.0,7,2,0.529645330039784,1,0.0866873359773308
9,3,24,5.87174603174603,11,16.0,5,2,0.136784045957029,1,0.31080103199929
9,3,25,5.25496598639456,11,15.0,4,2,1.20917217701208,-1,0.0167943929554895
9,3,26,4.45823129251701,11,12.0,1,2,0.382259411970153,-1,0.0333072100766003
9,3,27,8.10086167800453,11,18.0,7,2,0.124138289946131,1,0.0166213220218197
9,3,28,7.53197278911565,11,21.0,10,2,0.147192572942004,1,0.0161406398983672
9,3,29,6.48126984126984,11,16.0,5,2,0.169559331960045,1,0.0844480120576918
9,3,30,6.25777777777778,11,17.0,6,1,0.195819012937136,1,0.016310173086822
9,3,31,5.04453514739229,11,13.0,2,2,0.230902800918557,-1,0.936337827006355
9,3,32,7.76707482993197,11,19.0,8,2,0.124560010968708,1,0.0165311630116776
9,3,33,5.84126984126984,11,16.0,5,2,0.134795040939935,1,0.0165824899449944
9,3,34,5.72371882086168,11,16.0,5,2,2.44316556502599,-1,0.442938167019747
9,3,35,10.5650793650794,11,26.0,15,2,0.214502468006685,1,0.0161234040278941
9,3,36,4.26666666666667,11,11.0,0,2,0.13053399301134,-1,0.103649614029564
9,3,37,4.03301587301587,11,10.0,-1,1,1.65073518699501,-1,0.160471305949613
9,3,38,6.34195011337868,11,15.0,4,2,0.141817422001623,-1,0.211643005022779
9,3,39,7.20108843537415,11,18.0,7,2,0.0722764430101961,1,0.0167807549005374
9,3,40,6.80489795918367,11,18.0,7,3,0.420556746073999,1,0.686616976978257
9,3,41,6.15619047619048,11,16.0,5,2,0.514792509027757,1,5.2875309009105
9,3,42,8.05587301587302,11,21.0,10,1,1.92177308304235,1,0.1966388290748
9,3,43,5.42331065759637,11,13.0,2,2,0.198206803994253,-1,0.0168151719262823
9,3,44,7.77142857142857,11,19.0,8,2,0.540147353080101,1,0.0168402849230915
9,3,45,5.69469387755102,11,15.0,4,3,0.123039369937032,-1,0.0169115039752796
9,3,46,6.90358276643991,11,17.0,6,3,0.144811773090623,1,0.0167067969450727
9,3,47,7.29832199546485,11,18.0,7,3,0.200599697069265,1,0.0168928561033681
9,3,48,7.41151927437642,11,19.0,8,2,0.124227752094157,1,0.0165589899988845
9,3,49,6.64961451247166,11,15.0,4,3,0.584884651936591,1,0.0169759180862457
9,3,50,7.73950113378685,11,21.0,10,3,0.0929448400856927,1,0.0165598180610687
9,3,51,6.75120181405896,11,18.0,7,2,0.169558644061908,1,0.895022259908728
9,3,52,7.84399092970522,11,17.0,6,2,0.236738373059779,1,0.119487263960764
9,3,53,9.21396825396825,11,23.0,12,3,0.500225050956942,1,0.0424351510591805
9,3,54,7.48263038548753,11,18.0,7,2,0.181663166964427,1,0.226348503958434
9,3,55,3.98657596371882,11,11.0,0,2,0.395335771027021,-1,0.294908506097272
9,3,56,4.95310657596372,11,13.0,2,2,1.04889500606805,1,0.497956103994511
9,3,57,5.01260770975057,11,13.0,2,2,0.421296208049171,-1,0.144237183965743
9,3,58,6.84988662131519,11,16.0,5,2,0.393211368005723,-1,0.364431669004261
9,3,59,6.8281179138322,11,15.0,4,2,0.19968819594942,1,0.016043987008743
9,3,60,6.64961451247166,11,17.0,6,2,0.129099064040929,1,0.0159161849878728
9,3,61,8.3156462585034,11,19.0,8,2,0.301934323972091,1,0.0464922179235145
9,3,62,6.36662131519274,11,15.0,4,1,14.6401665949961,1,1.29809793899767
9,3,63,5.81950113378685,11,15.0,4,1,0.777067868039012,1,0.0162239669589326
9,3,64,5.4378231292517,11,14.0,3,2,0.449442074983381,1,0.0163160419324413
9,3,65,5.80063492063492,11,15.0,4,2,0.0986938790883869,1,0.016234997077845
9,3,66,4.281179138322,11,12.0,1,2,0.164529989939183,-1,0.200134034035727
9,3,67,6.07201814058957,11,15.0,4,2,0.100195619976148,1,0.0159779649693519
9,3,68,4.23183673469388,11,10.0,-1,3,0.862791224964894,-1,0.233036687946878
9,3,69,7.33460317460318,11,20.0,9,2,0.301832739962265,1,0.0161209449870512
9,3,70,7.3491156462585,11,19.0,8,2,0.041008066968061,1,0.0159466819604859
9,3,71,5.16643990929705,11,12.0,1,2,0.140246536000632,-1,0.0168572589755058
9,3,72,4.79201814058957,11,13.0,2,2,0.271297895000316,1,0.0166663200361654
9,3,73,7.69015873015873,11,19.0,8,2,0.166507564019412,1,0.0167083190754056
9,3,74,4.58448979591837,11,12.0,1,2,0.336232915055007,-1,0.0206538670463488
9,3,75,4.78621315192744,11,13.0,2,2,0.165317039005458,-1,0.385527526028454
9,3,76,9.4809977324263,11,24.0,13,2,0.183181594940834,1,0.0162153380224481
9,3,77,5.91528344671202,11,16.0,5,2,0.187579576042481,1,0.399576873984188
9,3,78,4.87619047619048,11,13.0,2,1,0.274737950065173,1,0.016992207034491
9,3,79,6.69024943310658,11,17.0,6,1,0.582437766017392,-1,0.771358644939028
9,3,80,4.43065759637188,11,11.0,0,1,0.268667362979613,-1,0.016998635022901
9,3,81,6.41160997732426,11,18.0,7,2,0.529113851021975,1,0.391217279015109
9,3,82,6.35936507936508,11,16.0,5,2,0.138543159933761,1,0.0167615540558472
9,4,1,9.30829931972789,19,24.0,5,2,0.327778000966646,1,0.0159580330364406
9,4,2,8.739410430839,19,22.0,3,2,1.00219911104068,1,0.109633801039308
9,4,3,13.0612244897959,19,33.0,14,2,0.150751976994798,-1,0.339243034017272
9,4,4,7.62485260770975,19,19.0,0,2,0.260133979958482,-1,0.156912672100589
9,4,5,9.69578231292517,19,26.0,7,2,0.173419966944493,-1,0.609661316964775
9,4,6,4.03301587301587,19,9.0,-10,1,2.09998787404038,-1,0.185935221030377
9,4,7,7.72643990929705,19,19.0,0,1,0.216645102016628,-1,0.016948367934674
9,4,8,4.43210884353741,19,13.0,-6,2,0.335799552965909,-1,0.179855837021023
9,4,9,7.87446712018141,19,19.0,0,1,0.100085225072689,-1,1.05099329201039
9,4,10,9.96861678004535,19,24.0,5,2,0.0721499050268903,-1,0.0166011230321601
9,4,11,8.99047619047619,19,22.0,3,2,0.0639695430872962,-1,0.0165187689708546
9,4,12,13.5981859410431,19,34.0,15,2,0.118600449059159,1,0.015978743089363
9,4,13,11.1571882086168,19,27.0,8,2,0.113989892997779,1,0.0170211419463158
9,4,14,7.75401360544218,19,20.0,1,2,0.177683566929772,1,0.016410608892329
9,4,15,8.60734693877551,19,23.0,4,2,0.21173090999946,-1,0.110972605994903
9,4,16,11.5693424036281,19,29.0,10,2,0.198064144002274,1,0.0159090700326487
9,4,17,9.66820861678005,19,25.0,6,2,0.149873892078176,1,0.0347283809678629
9,4,18,11.010612244898,19,27.0,8,2,0.211954965023324,-1,0.0619083739584312
9,4,19,12.7056689342404,19,31.0,12,2,0.119556130026467,1,0.0163928300607949
9,4,20,10.8480725623583,19,27.0,8,2,0.121777873020619,1,0.0296369839925319
9,4,21,9.91637188208617,19,25.0,6,2,0.494823373039253,-1,0.102637283969671
9,4,22,10.5984580498866,19,27.0,8,2,0.236922809970565,-1,0.0158444729167968
9,4,23,11.5911111111111,19,30.0,11,2,0.095706669962965,-1,0.015863811946474
9,4,24,8.03410430839002,19,20.0,1,2,0.265740205999464,1,0.0266676610335708
9,4,25,6.71637188208617,19,20.0,1,2,0.124901585979387,-1,0.0502228889381513
9,4,26,14.3978231292517,19,37.0,18,2,0.210764240007848,1,0.0162019419949502
9,4,27,9.02965986394558,19,24.0,5,2,0.0933700010646135,-1,0.0169860600726679
9,4,28,6.43337868480726,19,16.0,-3,2,0.246417618007399,-1,0.0168300839141011
9,4,29,12.16,19,30.0,11,2,0.181004671030678,-1,0.0159195859450847
9,4,30,11.5867573696145,19,28.0,9,2,0.0597538810689002,1,0.0167781200725585
9,4,31,12.2949659863946,19,30.0,11,2,0.165536111919209,-1,0.0158994600642473
9,4,32,14.387664399093,19,35.0,16,2,0.136085645062849,1,0.0167409050045535
9,4,33,11.4126077097506,19,28.0,9,2,0.850389783037826,-1,0.0164011380402371
9,4,34,13.5459410430839,19,34.0,15,2,0.185049967025407,-1,0.0166213139891624
9,4,35,8.64362811791383,19,21.0,2,2,0.163558342959732,-1,0.0165483379969373
9,4,36,11.4895238095238,19,32.0,13,2,0.155663355952129,1,0.234798423014581
9,4,37,10.2008163265306,19,26.0,7,2,0.17663367302157,-1,0.0302972749341279
9,4,38,9.14430839002268,19,24.0,5,2,0.256124802981503,-1,0.40891100501176
9,4,39,10.5375056689342,19,27.0,8,2,0.153730244957842,1,0.0164060709066689
9,4,40,12.756462585034,19,30.0,11,2,0.0989326930139214,1,0.0168747779680416
9,4,41,10.1442176870748,19,25.0,6,2,0.110819729045033,-1,0.0165996800642461
9,4,42,11.9118367346939,19,30.0,11,2,0.179614290944301,1,0.542090163915418
9,4,43,8.97741496598639,19,22.0,3,2,0.250913337105885,1,1.26790864299983
9,4,44,10.6042630385488,19,29.0,10,2,0.0912466009613127,-1,1.62048328202218
9,4,45,6.65977324263039,19,16.0,-3,2,1.30508956790436,-1,0.0159366630250588
9,4,46,11.1615419501134,19,30.0,11,2,0.136970019084401,-1,0.0159676359035075
9,4,47,11.1644444444444,19,28.0,9,2,0.112855941057205,-1,0.0702198559883982
9,4,48,12.0439002267574,19,31.0,12,2,0.192921534995548,1,2.23626309295651
9,4,49,6.82086167800454,19,17.0,-2,2,0.132937820977531,-1,0.016833676956594
9,4,50,9.55501133786848,19,24.0,5,2,0.150832751998678,-1,0.0918349040439352
9,4,51,10.0585941043084,19,24.0,5,2,0.181712411926128,1,0.0496524650370702
9,4,52,8.19229024943311,19,20.0,1,2,0.0933751050615683,-1,0.358637608936988
9,4,53,13.7679818594104,19,32.0,13,2,0.138406027923338,1,0.0167589150369167
9,4,54,12.6374603174603,19,32.0,13,2,0.0941641529789194,-1,0.15155194804538
9,4,55,16.1810430839002,19,NAN,980,2,2.61345032800455,1,1.22909676108975
9,4,56,15.1045578231293,19,NAN,980,1,1.46928715496324,-1,1.83763416600414
9,4,57,11.4053514739229,19,29.0,10,2,0.280836512101814,-1,0.0981983370147645
9,4,58,10.7392290249433,19,26.0,7,2,0.038013065000996,-1,0.0164983610156924
10,3,1,8.25904761904762,19,21.0,2,2,0.692566261976026,-1,0.773379537975416
