Subj_idx,Stimulus,Response,Confidence,RT_dec,RT_conf,Condition,Accuracy,Difficulty,Gender,Age,Fix_time,Block,Conf_key,Trial,L_dots,R_dots
1,2,1.0,4.0,0.3869270999999999,0.7839858000000001,2,1,1,1,19.0,50,1,p,0,45,55
1,1,NAN,4.0,NAN,0.5048722999999999,2,1,2,1,19.0,50,1,p,1,52,48
1,1,NAN,4.0,NAN,0.6375835999999999,2,1,1,1,19.0,50,1,p,2,55,45
1,2,1.0,4.0,0.5091422000000001,0.4682418,2,1,1,1,19.0,60,1,p,3,45,55
1,2,1.0,NAN,0.6228953,1.1165618999999998,2,1,3,1,19.0,70,1,h,4,49,51
1,2,1.0,4.0,0.6418789,0.718028,2,1,3,1,19.0,70,1,p,5,49,51
1,1,NAN,3.0,NAN,0.7039074000000001,2,1,1,1,19.0,60,1,o,6,55,45
1,1,1.0,4.0,0.3923410999999999,0.4510433,2,0,2,1,19.0,60,1,p,7,52,48
1,2,1.0,4.0,0.3232854,0.3613615,2,1,2,1,19.0,50,1,p,8,48,52
1,1,NAN,4.0,NAN,0.9384908000000002,2,1,1,1,19.0,60,1,p,9,55,45
1,2,1.0,3.0,0.6756810999999999,0.5679495,2,1,3,1,19.0,50,1,o,10,49,51
1,2,1.0,3.0,0.7245732,0.8344848,2,1,1,1,19.0,70,1,o,11,45,55
1,1,NAN,4.0,NAN,0.7357655,2,1,3,1,19.0,50,1,p,12,51,49
1,1,NAN,1.0,NAN,1.2873201,2,1,3,1,19.0,60,1,u,13,51,49
1,2,NAN,3.0,NAN,1.7871018,2,0,2,1,19.0,70,1,o,14,48,52
1,1,NAN,4.0,NAN,0.7050350999999999,2,1,2,1,19.0,70,1,p,15,52,48
1,2,1.0,4.0,0.6571915,0.7358312,2,1,1,1,19.0,50,1,p,16,45,55
1,2,NAN,2.0,NAN,0.938531,2,0,3,1,19.0,60,1,i,17,49,51
1,2,1.0,3.0,0.6593954000000001,0.5350675,2,1,3,1,19.0,60,1,o,18,49,51
1,1,NAN,4.0,NAN,0.7707418,2,1,3,1,19.0,70,1,p,19,51,49
1,1,1.0,3.0,0.6412536,0.7315403,2,0,2,1,19.0,60,1,o,20,52,48
1,1,NAN,4.0,NAN,0.5205563,2,1,1,1,19.0,50,1,p,21,55,45
1,2,1.0,4.0,0.725056,0.5326162,2,1,1,1,19.0,70,1,p,22,45,55
1,1,NAN,4.0,NAN,0.6018876,2,1,3,1,19.0,50,1,p,23,51,49
1,2,NAN,3.0,NAN,0.9537124,2,0,2,1,19.0,60,1,o,24,48,52
1,1,NAN,4.0,NAN,0.9047751,2,1,2,1,19.0,70,1,p,25,52,48
1,2,1.0,4.0,0.3915976,0.4853684,2,1,2,1,19.0,60,1,p,26,48,52
1,2,1.0,4.0,0.2743926,0.366369,2,1,2,1,19.0,50,1,p,27,48,52
1,1,NAN,4.0,NAN,0.3526854,2,1,1,1,19.0,70,1,p,28,55,45
1,1,NAN,4.0,NAN,0.5192462999999999,2,1,3,1,19.0,70,1,p,29,51,49
1,2,1.0,4.0,0.3038389999999999,0.5347199,2,1,3,1,19.0,70,1,p,30,49,51
1,2,1.0,4.0,0.2911086,0.3647453,2,1,1,1,19.0,50,1,p,31,45,55
1,1,NAN,4.0,NAN,0.3532692,2,1,2,1,19.0,70,1,p,32,52,48
1,1,1.0,3.0,0.3618457,0.550982,2,0,2,1,19.0,70,1,o,33,52,48
1,1,NAN,4.0,NAN,0.3379781,2,1,1,1,19.0,70,1,p,34,55,45
1,1,NAN,4.0,NAN,0.4219547,2,1,1,1,19.0,50,1,p,35,55,45
1,2,1.0,4.0,0.6368674,0.4490117999999999,2,1,2,1,19.0,70,1,p,36,48,52
1,2,1.0,3.0,0.5568226,0.4163244,2,1,3,1,19.0,60,1,o,37,49,51
1,1,NAN,4.0,NAN,0.3701274,2,1,1,1,19.0,60,1,p,38,55,45
1,1,1.0,3.0,0.6206332,0.518253,2,0,3,1,19.0,70,1,o,39,51,49
1,1,1.0,NAN,0.6239526,1.2672567,2,0,1,1,19.0,60,1,h,40,55,45
1,1,NAN,4.0,NAN,0.5036111,2,1,1,1,19.0,50,1,p,41,55,45
1,1,1.0,2.0,0.5379855,0.6341897,2,0,2,1,19.0,60,1,i,42,52,48
1,2,NAN,4.0,NAN,0.40473,2,0,3,1,19.0,60,1,p,43,49,51
1,2,NAN,NAN,NAN,1.4709476,2,0,1,1,19.0,70,1,h,44,45,55
1,2,1.0,4.0,0.6511399999999999,0.4336721999999999,2,1,2,1,19.0,50,1,p,45,48,52
1,1,NAN,4.0,NAN,0.5509459,2,1,2,1,19.0,50,1,p,46,52,48
1,1,NAN,4.0,NAN,0.6531891,2,1,3,1,19.0,50,1,p,47,51,49
1,2,1.0,4.0,0.7761133000000001,0.4525145,2,1,2,1,19.0,60,1,p,48,48,52
1,2,NAN,1.0,NAN,0.5546585999999999,2,0,1,1,19.0,60,1,u,49,45,55
1,2,1.0,3.0,0.6703056,0.6345321999999999,2,1,2,1,19.0,60,1,o,50,48,52
1,2,NAN,3.0,NAN,0.4688827,2,0,3,1,19.0,50,1,o,51,49,51
1,1,NAN,4.0,NAN,0.3528160999999999,2,1,2,1,19.0,60,1,p,52,52,48
1,2,NAN,4.0,NAN,0.5366783,2,0,1,1,19.0,70,1,p,53,45,55
1,2,1.0,4.0,0.4281685999999999,0.4332622,2,1,2,1,19.0,50,1,p,54,48,52
1,2,1.0,3.0,0.4709787,0.5513710999999999,2,1,3,1,19.0,70,1,o,55,49,51
1,1,NAN,2.0,NAN,0.9702632,2,1,3,1,19.0,50,1,i,56,51,49
1,2,1.0,4.0,0.5277281999999999,0.3673436,2,1,1,1,19.0,50,1,p,57,45,55
1,1,1.0,3.0,0.6588937,0.3854566,2,0,3,1,19.0,60,1,o,58,51,49
1,1,1.0,3.0,0.4825952,0.5520506,2,0,3,1,19.0,70,1,o,59,51,49
1,2,1.0,4.0,0.3234666,0.5011078,2,1,1,1,19.0,70,1,p,60,45,55
1,1,1.0,3.0,0.2945992,0.5347571999999999,2,0,3,1,19.0,70,1,o,61,51,49
1,1,NAN,4.0,NAN,0.3357397,2,1,3,1,19.0,60,1,p,62,51,49
1,1,1.0,NAN,0.261717,1.4738537,2,0,1,1,19.0,50,1,h,63,55,45
1,2,1.0,4.0,0.7244252,0.4514067,2,1,2,1,19.0,70,1,p,64,48,52
1,2,1.0,3.0,0.6714751999999999,0.400488,2,1,3,1,19.0,60,1,o,65,49,51
1,1,NAN,4.0,NAN,0.3978578,2,1,2,1,19.0,50,1,p,66,52,48
1,1,NAN,4.0,NAN,0.404016,2,1,3,1,19.0,50,1,p,67,51,49
1,2,1.0,4.0,0.5529309,0.4337404,2,1,1,1,19.0,50,1,p,68,45,55
1,2,1.0,3.0,0.5702245,0.4821456,2,1,2,1,19.0,60,1,o,69,48,52
1,2,1.0,4.0,0.573367,0.7814661,2,1,1,1,19.0,70,1,p,70,45,55
1,1,NAN,3.0,NAN,0.5050584,2,1,3,1,19.0,70,1,o,71,51,49
1,2,1.0,4.0,0.7422835,0.6515058000000001,2,1,3,1,19.0,50,1,p,72,49,51
1,2,NAN,3.0,NAN,0.4209452,2,0,3,1,19.0,70,1,o,73,49,51
1,1,NAN,2.0,NAN,0.3870676,2,1,2,1,19.0,70,1,i,74,52,48
1,2,1.0,1.0,0.92353,0.7681974,2,1,3,1,19.0,60,1,u,75,49,51
1,1,1.0,NAN,0.8079174,0.7348039000000001,2,0,2,1,19.0,60,1,h,76,52,48
1,1,NAN,3.0,NAN,0.6698002,2,1,1,1,19.0,70,1,o,77,55,45
1,1,NAN,NAN,NAN,1.0869607,2,1,1,1,19.0,60,1,h,78,55,45
1,2,NAN,3.0,NAN,0.8365459000000001,2,0,2,1,19.0,50,1,o,79,48,52
1,2,NAN,4.0,NAN,0.9871915,2,0,3,1,19.0,70,1,p,80,49,51
1,1,NAN,4.0,NAN,0.5870248,2,1,1,1,19.0,60,1,p,81,55,45
1,2,1.0,3.0,0.6650709,0.5172823000000001,2,1,1,1,19.0,50,1,o,82,45,55
1,2,NAN,4.0,NAN,0.652948,2,0,2,1,19.0,60,1,p,83,48,52
1,2,1.0,4.0,0.8790851999999999,0.4174278,2,1,2,1,19.0,50,1,p,84,48,52
1,1,1.0,4.0,0.7728497,0.610618,2,0,2,1,19.0,60,1,p,85,52,48
1,2,1.0,4.0,0.4690338,0.4017372,2,1,1,1,19.0,60,1,p,86,45,55
1,1,1.0,3.0,0.3695334,0.6181913,2,0,3,1,19.0,50,1,o,87,51,49
1,1,NAN,3.0,NAN,0.420559,2,1,1,1,19.0,50,1,o,88,55,45
1,1,1.0,3.0,0.3588709,0.4689844,2,0,2,1,19.0,70,1,o,89,52,48
1,1,1.0,4.0,0.607916,0.4673423,2,0,3,1,19.0,70,1,p,90,51,49
1,1,NAN,3.0,NAN,0.3707823,2,1,3,1,19.0,70,1,o,91,51,49
1,1,1.0,NAN,0.5579113,1.4340204,2,0,3,1,19.0,60,1,h,92,51,49
1,2,1.0,3.0,0.8186356,0.333798,2,1,2,1,19.0,70,1,o,93,48,52
1,2,1.0,3.0,0.6362791,0.3143419,2,1,1,1,19.0,70,1,o,94,45,55
1,1,NAN,4.0,NAN,0.0862661,2,1,1,1,19.0,70,1,p,95,55,45
1,1,1.0,3.0,0.5454405,0.5015712,2,0,2,1,19.0,60,1,o,96,52,48
1,1,NAN,2.0,NAN,1.4872846000000002,2,1,2,1,19.0,50,1,i,97,52,48
1,1,NAN,4.0,NAN,0.4717708,2,1,3,1,19.0,50,1,p,98,51,49
1,2,1.0,4.0,0.5604661,0.4856957,2,1,2,1,19.0,60,1,p,99,48,52
1,2,1.0,4.0,0.5752004,0.4348583,2,1,1,1,19.0,60,1,p,100,45,55
1,2,1.0,4.0,0.5743019,0.3647944,2,1,1,1,19.0,70,1,p,101,45,55
1,1,NAN,4.0,NAN,0.3541099,2,1,1,1,19.0,60,1,p,102,55,45
1,1,NAN,4.0,NAN,0.4046085,2,1,2,1,19.0,70,1,p,103,52,48
1,2,NAN,3.0,NAN,0.3043077,2,0,1,1,19.0,50,1,o,104,45,55
1,1,1.0,3.0,0.8908845,0.8521793,2,0,3,1,19.0,50,1,o,105,51,49
1,2,NAN,3.0,NAN,0.6884357,2,0,2,1,19.0,50,1,o,106,48,52
1,2,1.0,3.0,0.9572486,0.4188152,2,1,3,1,19.0,60,1,o,107,49,51
1,2,1.0,3.0,0.6252614000000001,0.301481,2,1,1,1,19.0,50,1,o,108,45,55
1,2,1.0,3.0,0.6075016,0.2315536,2,1,3,1,19.0,70,1,o,109,49,51
1,2,NAN,3.0,NAN,0.9206994,2,0,3,1,19.0,50,1,o,110,49,51
1,2,1.0,3.0,0.6604814999999999,0.3349869,2,1,2,1,19.0,50,1,o,111,48,52
1,1,NAN,2.0,NAN,0.7051046,2,1,1,1,19.0,50,1,i,112,55,45
1,2,NAN,2.0,NAN,0.7386465999999999,2,0,2,1,19.0,60,1,i,113,48,52
1,2,1.0,NAN,0.4420094,1.2191995,2,1,3,1,19.0,60,1,h,114,49,51
1,1,1.0,NAN,0.6900509,0.9691144,2,0,1,1,19.0,50,1,h,115,55,45
1,1,NAN,2.0,NAN,0.7188996999999999,2,1,2,1,19.0,60,1,i,116,52,48
1,1,NAN,3.0,NAN,0.6859244999999999,2,1,2,1,19.0,70,1,o,117,52,48
1,2,NAN,2.0,NAN,0.7373371,2,0,3,1,19.0,70,1,i,118,49,51
1,1,1.0,NAN,0.7251838,1.1479699,2,0,1,1,19.0,60,1,h,119,55,45
1,1,1.0,3.0,0.5268371999999999,0.4505616,2,0,3,1,19.0,70,1,o,120,51,49
1,1,NAN,4.0,NAN,0.35493,2,1,2,1,19.0,60,1,p,121,52,48
1,1,NAN,3.0,NAN,0.3387187,2,1,2,1,19.0,60,1,o,122,52,48
1,2,NAN,4.0,NAN,0.3044217999999999,2,0,3,1,19.0,60,1,p,123,49,51
1,1,NAN,3.0,NAN,0.3212703,2,1,3,1,19.0,50,1,o,124,51,49
1,2,1.0,3.0,0.5737384,0.3183322,2,1,3,1,19.0,70,1,o,125,49,51
1,2,1.0,3.0,0.6084742,0.3166375,2,1,1,1,19.0,70,1,o,126,45,55
1,2,1.0,4.0,0.7240878000000001,0.4358044,2,1,3,1,19.0,70,1,p,127,49,51
1,1,NAN,4.0,NAN,0.6034259,2,1,3,1,19.0,70,1,p,128,51,49
1,1,NAN,4.0,NAN,0.3549156,2,1,2,1,19.0,70,1,p,129,52,48
1,1,NAN,4.0,NAN,0.3552059,2,1,1,1,19.0,50,1,p,130,55,45
1,2,NAN,4.0,NAN,0.3370452,2,0,3,1,19.0,50,1,p,131,49,51
1,2,1.0,3.0,0.6245993000000001,0.4514125,2,1,1,1,19.0,50,1,o,132,45,55
1,2,1.0,4.0,0.6526133000000001,0.434852,2,1,1,1,19.0,50,1,p,133,45,55
1,2,1.0,NAN,0.8778754000000001,1.2844278,2,1,2,1,19.0,60,1,h,134,48,52
1,2,1.0,4.0,0.8053384,0.3354827,2,1,1,1,19.0,70,1,p,135,45,55
1,1,1.0,4.0,0.6584808000000001,0.2841263,2,0,3,1,19.0,50,1,p,136,51,49
1,2,1.0,4.0,0.4417935999999999,0.3186877999999999,2,1,2,1,19.0,50,1,p,137,48,52
1,1,NAN,4.0,NAN,0.3880022,2,1,1,1,19.0,50,1,p,138,55,45
1,1,NAN,4.0,NAN,0.8711742,2,1,1,1,19.0,60,1,p,139,55,45
1,2,NAN,3.0,NAN,0.7206675,2,0,2,1,19.0,50,1,o,140,48,52
1,2,1.0,4.0,0.8288293999999999,0.3680144,2,1,1,1,19.0,60,1,p,141,45,55
1,1,NAN,3.0,NAN,1.5867111,2,1,2,1,19.0,50,1,o,142,52,48
1,1,1.0,3.0,0.953611,0.8685441999999999,2,0,3,1,19.0,60,1,o,143,51,49
1,1,NAN,4.0,NAN,0.5866488000000001,2,1,1,1,19.0,70,1,p,144,55,45
1,2,NAN,2.0,NAN,0.43666,2,0,2,1,19.0,70,1,i,145,48,52
1,1,NAN,3.0,NAN,0.6864216999999999,2,1,2,1,19.0,70,1,o,146,52,48
1,2,1.0,3.0,0.5531086,0.718747,2,1,2,1,19.0,60,1,o,147,48,52
1,1,NAN,3.0,NAN,0.4697755,2,1,1,1,19.0,60,1,o,148,55,45
1,2,NAN,3.0,NAN,0.5869121999999999,2,0,3,1,19.0,60,1,o,149,49,51
1,1,NAN,NAN,NAN,1.5525392,2,1,2,1,19.0,70,1,h,150,52,48
1,2,1.0,4.0,0.5277689999999999,0.3007924,2,1,3,1,19.0,60,1,p,151,49,51
1,2,1.0,4.0,0.5267383000000001,0.2359786,2,1,1,1,19.0,60,1,p,152,45,55
1,2,1.0,4.0,0.4421442,0.3020408,2,1,1,1,19.0,50,1,p,153,45,55
1,1,NAN,3.0,NAN,0.5388522,2,1,3,1,19.0,60,1,o,154,51,49
1,2,1.0,4.0,0.5592843000000001,0.3024459,2,1,3,1,19.0,60,1,p,155,49,51
1,2,1.0,4.0,0.4096317,0.2683415999999999,2,1,2,1,19.0,60,1,p,156,48,52
1,1,1.0,3.0,0.4921474,0.2004432,2,0,3,1,19.0,70,1,o,157,51,49
1,1,NAN,4.0,NAN,0.5876779000000001,2,1,2,1,19.0,70,1,p,158,52,48
1,1,NAN,1.0,NAN,0.6542676,2,1,3,1,19.0,70,1,u,159,51,49
1,2,1.0,3.0,0.5557343000000001,0.4846153,2,1,2,1,19.0,70,1,o,160,48,52
1,1,NAN,3.0,NAN,0.6219124,2,1,1,1,19.0,50,1,o,161,55,45
1,1,1.0,NAN,0.5122278,0.9856413,2,0,1,1,19.0,50,1,h,162,55,45
1,2,NAN,NAN,NAN,1.3381695,2,0,1,1,19.0,70,1,h,163,45,55
1,2,1.0,4.0,0.4696295999999999,0.8148379,2,1,2,1,19.0,60,1,p,164,48,52
1,2,NAN,NAN,NAN,1.7375080000000005,2,0,2,1,19.0,50,1,h,165,48,52
1,2,1.0,3.0,0.3730764,0.4348012,2,1,1,1,19.0,50,1,o,166,45,55
1,1,NAN,3.0,NAN,0.5882494,2,1,1,1,19.0,60,1,o,167,55,45
1,1,NAN,3.0,NAN,0.6717725999999999,2,1,2,1,19.0,50,1,o,168,52,48
1,2,1.0,3.0,0.4723449999999999,0.38498,2,1,3,1,19.0,70,1,o,169,49,51
1,1,NAN,3.0,NAN,0.6715708,2,1,2,1,19.0,60,1,o,170,52,48
1,1,NAN,3.0,NAN,0.5213795999999999,2,1,3,1,19.0,50,1,o,171,51,49
1,1,1.0,3.0,0.7756826,0.2680205,2,0,3,1,19.0,50,1,o,172,51,49
1,1,NAN,3.0,NAN,0.3038743,2,1,2,1,19.0,60,1,o,173,52,48
1,2,1.0,3.0,0.7219896,0.4984181,2,1,2,1,19.0,50,1,o,174,48,52
1,2,1.0,4.0,0.6312253000000001,0.4004915,2,1,3,1,19.0,50,1,p,175,49,51
1,1,NAN,2.0,NAN,0.4881412999999999,2,1,1,1,19.0,70,1,i,176,55,45
1,1,NAN,3.0,NAN,0.9876103,2,1,1,1,19.0,60,1,o,177,55,45
1,2,NAN,3.0,NAN,0.8712151,2,0,3,1,19.0,70,1,o,178,49,51
1,2,1.0,4.0,0.5024965,0.4858995,2,1,1,1,19.0,70,1,p,179,45,55
1,2,1.0,4.0,0.2842770999999999,0.5664384,2,1,2,1,19.0,50,1,p,180,48,52
1,2,1.0,4.0,0.3034752,0.3177513,2,1,3,1,19.0,50,1,p,181,49,51
1,1,NAN,3.0,NAN,0.2703205,2,1,2,1,19.0,70,1,o,182,52,48
1,2,1.0,4.0,0.4856311,0.30213,2,1,1,1,19.0,50,1,p,183,45,55
1,2,1.0,4.0,0.3267275,0.5354626,2,1,2,1,19.0,70,1,p,184,48,52
1,1,1.0,2.0,0.4233227,0.5343813000000001,2,0,3,1,19.0,60,1,i,185,51,49
1,1,1.0,3.0,0.5041452999999999,0.4002684999999999,2,0,3,1,19.0,70,1,o,186,51,49
1,1,NAN,3.0,NAN,0.2539133,2,1,3,1,19.0,50,1,o,187,51,49
1,1,NAN,4.0,NAN,0.3864357,2,1,1,1,19.0,60,1,p,188,55,45
1,1,1.0,3.0,0.7740444000000001,0.5513195,2,0,2,1,19.0,60,1,o,189,52,48
1,2,1.0,3.0,0.6248623999999999,0.3681725,2,1,1,1,19.0,60,1,o,190,45,55
1,1,1.0,NAN,0.6232439999999999,1.0519113000000002,2,0,1,1,19.0,70,1,h,191,55,45
1,2,1.0,4.0,0.5560725000000001,0.3340284,2,1,1,1,19.0,70,1,p,192,45,55
1,2,1.0,4.0,0.4736104,0.2022071,2,1,1,1,19.0,70,1,p,193,45,55
1,2,1.0,4.0,0.4113532,0.185267,2,1,2,1,19.0,60,1,p,194,48,52
1,2,1.0,3.0,0.4413196,0.3521023,2,1,2,1,19.0,50,1,o,195,48,52
1,2,1.0,3.0,0.5785955,0.1500252,2,1,3,1,19.0,70,1,o,196,49,51
1,2,NAN,3.0,NAN,0.0358261999999999,2,0,3,1,19.0,60,1,o,197,49,51
1,1,NAN,4.0,NAN,0.3538301,2,1,3,1,19.0,70,1,p,198,51,49
1,2,1.0,3.0,0.4773415,0.2685035,2,1,3,1,19.0,70,1,o,199,49,51
1,1,1.0,NAN,0.7694193,1.0011207,2,0,2,1,19.0,60,1,h,200,52,48
1,2,NAN,4.0,NAN,0.4881549,2,0,2,1,19.0,60,1,p,201,48,52
1,1,NAN,4.0,NAN,0.6217425999999999,2,1,1,1,19.0,50,1,p,202,55,45
1,1,NAN,4.0,NAN,0.2548641,2,1,2,1,19.0,50,1,p,203,52,48
1,1,NAN,3.0,NAN,0.4209984999999999,2,1,1,1,19.0,60,1,o,204,55,45
1,2,NAN,3.0,NAN,0.4693209,2,0,3,1,19.0,60,1,o,205,49,51
1,2,NAN,3.0,NAN,0.4039877,2,0,1,1,19.0,50,1,o,206,45,55
1,1,1.0,3.0,0.2368291,0.4233257,2,0,3,1,19.0,50,1,o,207,51,49
1,1,1.0,4.0,0.7076398,0.3355435,2,0,2,1,19.0,70,1,p,208,52,48
1,1,NAN,3.0,NAN,0.4882959,2,1,1,1,19.0,50,1,o,209,55,45
1,2,1.0,4.0,0.6705604000000001,0.4185863,2,1,1,1,19.0,50,1,p,210,45,55
1,1,1.0,3.0,0.6423462,0.4632622,2,0,1,1,19.0,60,1,o,211,55,45
1,1,NAN,4.0,NAN,0.3369737,2,1,3,1,19.0,70,1,p,212,51,49
1,2,1.0,4.0,0.9390426,0.4349166,2,1,3,1,19.0,50,1,p,213,49,51
1,2,1.0,4.0,0.4753987,0.2678660999999999,2,1,2,1,19.0,50,1,p,214,48,52
1,1,1.0,4.0,0.3115761,0.2687869,2,0,3,1,19.0,60,1,p,215,51,49
1,1,1.0,3.0,0.5106305999999999,0.3168296,2,0,2,1,19.0,70,1,o,216,52,48
1,1,NAN,3.0,NAN,0.2878699999999999,2,1,2,1,19.0,50,1,o,217,52,48
1,2,1.0,3.0,0.6951944999999999,0.9185888,2,1,3,1,19.0,70,1,o,218,49,51
1,1,1.0,4.0,0.6214109,0.4857132999999999,2,0,3,1,19.0,50,1,p,219,51,49
1,1,1.0,4.0,0.5085157,0.3011914,2,0,3,1,19.0,50,1,p,220,51,49
1,1,NAN,3.0,NAN,0.4040854,2,1,1,1,19.0,50,1,o,221,55,45
1,2,1.0,4.0,0.9014519,0.267522,2,1,1,1,19.0,50,1,p,222,45,55
1,1,NAN,3.0,NAN,0.1870446,2,1,1,1,19.0,50,1,o,223,55,45
1,2,1.0,NAN,0.5402769000000001,1.3527196,2,1,3,1,19.0,60,1,h,224,49,51
1,1,1.0,NAN,0.5612427,1.2682284,2,0,2,1,19.0,60,1,h,225,52,48
1,2,1.0,4.0,0.4903072,0.4517898,2,1,1,1,19.0,70,1,p,226,45,55
1,2,NAN,4.0,NAN,0.4876614,2,0,2,1,19.0,60,1,p,227,48,52
1,2,1.0,4.0,0.5543803,0.3349919,2,1,2,1,19.0,50,1,p,228,48,52
1,1,NAN,3.0,NAN,0.3544305,2,1,3,1,19.0,70,1,o,229,51,49
1,2,1.0,4.0,0.6723548,0.234204,2,1,1,1,19.0,60,1,p,230,45,55
1,2,1.0,4.0,0.3892597,0.13392,2,1,2,1,19.0,70,1,p,231,48,52
1,2,1.0,4.0,0.5040690999999999,0.0847409,2,1,3,1,19.0,70,1,p,232,49,51
1,2,1.0,4.0,0.4422455,0.1351183,2,1,1,1,19.0,70,1,p,233,45,55
1,1,NAN,3.0,NAN,0.371296,2,1,1,1,19.0,60,1,o,234,55,45
1,1,NAN,3.0,NAN,0.4374128,2,1,1,1,19.0,70,1,o,235,55,45
1,2,1.0,4.0,0.5707799,0.1847084,2,1,2,1,19.0,60,1,p,236,48,52
1,2,NAN,3.0,NAN,0.4022123,2,0,3,1,19.0,60,1,o,237,49,51
1,1,NAN,3.0,NAN,0.5355479000000001,2,1,2,1,19.0,60,1,o,238,52,48
1,1,NAN,4.0,NAN,0.4542419,2,1,2,1,19.0,70,1,p,239,52,48
1,2,1.0,4.0,0.290413,0.3355618,2,1,2,1,19.0,60,1,p,240,48,52
1,1,1.0,4.0,0.3375624,0.2857275,2,0,2,1,19.0,50,1,p,241,52,48
1,2,NAN,3.0,NAN,1.052762,2,0,3,1,19.0,70,1,o,242,49,51
1,2,1.0,NAN,0.3872364,1.1508052,2,1,2,1,19.0,50,1,h,243,48,52
1,2,NAN,4.0,NAN,0.4040501999999999,2,0,2,1,19.0,70,1,p,244,48,52
1,1,1.0,2.0,0.5104143,0.6680995,2,0,2,1,19.0,70,1,i,245,52,48
1,1,NAN,1.0,NAN,1.019997,2,1,3,1,19.0,60,1,u,246,51,49
1,1,NAN,4.0,NAN,0.4875036,2,1,1,1,19.0,70,1,p,247,55,45
1,2,1.0,4.0,0.7064013000000001,0.3854833,2,1,1,1,19.0,50,1,p,248,45,55
1,2,NAN,2.0,NAN,0.4550574,2,0,3,1,19.0,50,1,i,249,49,51
1,1,NAN,3.0,NAN,0.6215861,2,1,1,1,19.0,50,1,o,250,55,45
1,2,NAN,3.0,NAN,0.3859639,2,0,3,1,19.0,60,1,o,251,49,51
1,1,NAN,2.0,NAN,0.6355677,2,1,3,1,19.0,50,1,i,252,51,49
1,1,NAN,4.0,NAN,0.6032035,2,1,1,1,19.0,60,1,p,253,55,45
1,2,1.0,3.0,0.4077675,0.5679548000000001,2,1,3,1,19.0,70,1,o,254,49,51
1,2,1.0,3.0,0.3867147999999999,0.3182777,2,1,2,1,19.0,60,1,o,255,48,52
1,2,1.0,3.0,0.4741292,0.1689045,2,1,1,1,19.0,60,1,o,256,45,55
1,1,NAN,2.0,NAN,0.4884077999999999,2,1,2,1,19.0,60,1,i,257,52,48
1,1,NAN,4.0,NAN,0.5216829000000001,2,1,3,1,19.0,70,1,p,258,51,49
1,1,NAN,4.0,NAN,0.8533785,2,1,3,1,19.0,50,1,p,259,51,49
1,2,1.0,3.0,0.6189460999999999,0.5490686,2,1,1,1,19.0,70,1,o,260,45,55
1,1,NAN,3.0,NAN,0.5707361,2,1,1,1,19.0,60,1,o,261,55,45
1,2,NAN,3.0,NAN,0.786994,2,0,3,1,19.0,60,1,o,262,49,51
1,2,NAN,3.0,NAN,0.3536428,2,0,1,1,19.0,70,1,o,263,45,55
1,1,NAN,3.0,NAN,0.4550056999999999,2,1,1,1,19.0,50,1,o,264,55,45
1,1,NAN,2.0,NAN,0.5544102,2,1,3,1,19.0,70,1,i,265,51,49
1,1,NAN,3.0,NAN,0.7710909,2,1,2,1,19.0,60,1,o,266,52,48
1,2,NAN,3.0,NAN,0.7050825,2,0,1,1,19.0,50,1,o,267,45,55
1,2,NAN,4.0,NAN,0.7538687,2,0,2,1,19.0,50,1,p,268,48,52
1,1,1.0,3.0,0.5064426,0.4315327,2,0,2,1,19.0,70,1,o,269,52,48
1,2,1.0,4.0,0.4114279,0.3508896999999999,2,1,1,1,19.0,70,1,p,270,45,55
1,1,NAN,4.0,NAN,0.3715555,2,1,1,1,19.0,60,1,p,271,55,45
1,1,NAN,4.0,NAN,0.4216005,2,1,2,1,19.0,60,1,p,272,52,48
1,2,1.0,4.0,0.5407323,0.3353090999999999,2,1,1,1,19.0,60,1,p,273,45,55
1,2,1.0,4.0,0.4304706,0.3189152,2,1,1,1,19.0,50,1,p,274,45,55
1,1,NAN,3.0,NAN,0.3882567,2,1,3,1,19.0,60,1,o,275,51,49
1,2,NAN,3.0,NAN,0.5032515999999999,2,0,3,1,19.0,60,1,o,276,49,51
1,1,NAN,3.0,NAN,0.5040140999999999,2,1,3,1,19.0,70,1,o,277,51,49
1,1,NAN,3.0,NAN,0.470531,2,1,2,1,19.0,50,1,o,278,52,48
1,1,1.0,3.0,0.4430528,0.4019037,2,0,3,1,19.0,50,1,o,279,51,49
1,1,NAN,4.0,NAN,0.269586,2,1,1,1,19.0,60,1,p,280,55,45
1,2,NAN,4.0,NAN,0.5871024,2,0,2,1,19.0,50,1,p,281,48,52
1,1,NAN,4.0,NAN,0.3718072,2,1,1,1,19.0,70,1,p,282,55,45
1,1,NAN,4.0,NAN,0.5873927,2,1,3,1,19.0,70,1,p,283,51,49
1,2,NAN,3.0,NAN,0.3197857999999999,2,0,3,1,19.0,70,1,o,284,49,51
1,2,1.0,3.0,0.324801,0.6676623,2,1,3,1,19.0,60,1,o,285,49,51
1,2,1.0,NAN,0.9093284,1.4011695,2,1,2,1,19.0,50,1,h,286,48,52
1,2,NAN,3.0,NAN,0.4384518,2,0,2,1,19.0,70,1,o,287,48,52
1,2,1.0,4.0,0.6012984,0.450058,2,1,3,1,19.0,70,1,p,288,49,51
1,1,NAN,4.0,NAN,0.3883167999999999,2,1,2,1,19.0,60,1,p,289,52,48
1,1,NAN,4.0,NAN,0.4052817,2,1,1,1,19.0,50,1,p,290,55,45
1,1,NAN,2.0,NAN,0.7705436999999999,2,1,1,1,19.0,50,1,i,291,55,45
1,2,NAN,3.0,NAN,0.7042879,2,0,2,1,19.0,60,1,o,292,48,52
1,1,NAN,3.0,NAN,0.5207824000000001,2,1,3,1,19.0,50,1,o,293,51,49
1,1,1.0,3.0,0.5454718000000001,0.4509135999999999,2,0,2,1,19.0,70,1,o,294,52,48
1,2,NAN,3.0,NAN,0.5045704000000001,2,0,3,1,19.0,50,1,o,295,49,51
1,2,1.0,4.0,0.3412531,0.6510111999999999,2,1,2,1,19.0,60,1,p,296,48,52
1,2,1.0,4.0,0.6911212,0.3521646,2,1,1,1,19.0,70,1,p,297,45,55
1,2,1.0,3.0,0.4482407,0.4676918,2,1,1,1,19.0,50,1,o,298,45,55
1,1,1.0,3.0,0.2555695,0.3020928,2,0,2,1,19.0,70,1,o,299,52,48
1,1,1.0,4.0,0.2239881,0.4346126,2,0,2,1,19.0,70,1,p,300,52,48
1,2,1.0,4.0,0.2187094,0.2179697,2,1,3,1,19.0,70,1,p,301,49,51
1,1,1.0,4.0,0.292051,0.2245582,2,0,3,1,19.0,70,1,p,302,51,49
1,2,1.0,4.0,0.8086248,0.1684548,2,1,2,1,19.0,50,1,p,303,48,52
1,2,1.0,3.0,0.5254364,0.3179328,2,1,1,1,19.0,70,1,o,304,45,55
1,2,NAN,3.0,NAN,0.4877855,2,0,2,1,19.0,60,1,o,305,48,52
1,2,NAN,4.0,NAN,0.6540024999999999,2,0,3,1,19.0,50,1,p,306,49,51
1,1,NAN,4.0,NAN,0.4036959,2,1,1,1,19.0,60,1,p,307,55,45
1,1,NAN,2.0,NAN,0.1041019,2,1,2,1,19.0,60,1,i,308,52,48
1,2,NAN,3.0,NAN,0.4374402,2,0,3,1,19.0,70,1,o,309,49,51
1,1,NAN,3.0,NAN,0.4024164,2,1,3,1,19.0,50,1,o,310,51,49
1,2,NAN,3.0,NAN,0.4546579,2,0,2,1,19.0,70,1,o,311,48,52
1,1,NAN,3.0,NAN,0.3042442,2,1,3,1,19.0,70,1,o,312,51,49
1,1,1.0,3.0,0.3544914,0.318284,2,0,3,1,19.0,50,1,o,313,51,49
1,2,1.0,3.0,0.3880664,0.2188384,2,1,1,1,19.0,70,1,o,314,45,55
1,2,NAN,3.0,NAN,0.3380626,2,0,2,1,19.0,50,1,o,315,48,52
1,1,NAN,4.0,NAN,0.3876547999999999,2,1,1,1,19.0,60,1,p,316,55,45
1,2,1.0,4.0,0.4461323,0.3326765,2,1,1,1,19.0,50,1,p,317,45,55
1,1,NAN,3.0,NAN,0.4207873,2,1,1,1,19.0,50,1,o,318,55,45
1,1,1.0,NAN,0.5131987,1.0350431,2,0,3,1,19.0,60,1,h,319,51,49
1,2,1.0,4.0,0.7078889,0.3016869,2,1,1,1,19.0,60,1,p,320,45,55
1,2,1.0,3.0,0.5070797,0.4020957,2,1,3,1,19.0,60,1,o,321,49,51
1,2,NAN,3.0,NAN,0.5710063,2,0,3,1,19.0,60,1,o,322,49,51
1,1,NAN,3.0,NAN,0.7049673000000001,2,1,2,1,19.0,70,1,o,323,52,48
1,2,NAN,3.0,NAN,1.0539874,2,0,2,1,19.0,60,1,o,324,48,52
1,1,NAN,4.0,NAN,0.6187071999999999,2,1,1,1,19.0,70,1,p,325,55,45
1,1,NAN,4.0,NAN,0.5836314,2,1,1,1,19.0,50,1,p,326,55,45
1,2,1.0,3.0,0.7268058000000001,0.4021315,2,1,1,1,19.0,50,1,o,327,45,55
1,1,NAN,3.0,NAN,0.4877683,2,1,2,1,19.0,60,1,o,328,52,48
1,1,NAN,3.0,NAN,0.8044576999999999,2,1,2,1,19.0,50,1,o,329,52,48
1,2,1.0,4.0,0.223101,0.3517099,2,1,3,1,19.0,70,1,p,330,49,51
1,1,1.0,4.0,0.3029664999999999,0.3021243,2,0,3,1,19.0,50,1,p,331,51,49
1,2,1.0,3.0,0.4784510999999999,0.3850945,2,1,1,1,19.0,60,1,o,332,45,55
1,2,1.0,3.0,0.5414436,0.2012892999999999,2,1,1,1,19.0,50,1,o,333,45,55
1,2,1.0,3.0,0.2720261,0.1315343,2,1,2,1,19.0,50,1,o,334,48,52
1,1,NAN,4.0,NAN,0.3045279,2,1,1,1,19.0,50,1,p,335,55,45
1,1,NAN,3.0,NAN,0.381136,2,1,2,1,19.0,70,1,o,336,52,48
1,2,1.0,3.0,0.558341,0.2853375,2,1,2,1,19.0,60,1,o,337,48,52
1,2,NAN,NAN,NAN,1.4549995,2,0,1,1,19.0,70,1,h,338,45,55
1,1,NAN,3.0,NAN,0.5716201999999999,2,1,1,1,19.0,60,1,o,339,55,45
1,1,NAN,4.0,NAN,0.4210102,2,1,1,1,19.0,70,1,p,340,55,45
1,2,1.0,4.0,0.5760331999999999,0.3844817,2,1,2,1,19.0,70,1,p,341,48,52
1,2,1.0,3.0,0.5406991,0.332236,2,1,1,1,19.0,70,1,o,342,45,55
1,1,NAN,3.0,NAN,0.5716735,2,1,2,1,19.0,70,1,o,343,52,48
1,2,1.0,3.0,0.4941929,0.2682746,2,1,1,1,19.0,50,1,o,344,45,55
1,1,1.0,2.0,0.5292326,0.8021423000000001,2,0,1,1,19.0,50,1,i,345,55,45
1,1,1.0,NAN,0.6923295,1.5858268999999998,2,0,3,1,19.0,70,1,h,346,51,49
1,1,NAN,3.0,NAN,0.3548505999999999,2,1,3,1,19.0,50,1,o,347,51,49
1,1,NAN,3.0,NAN,0.4541702,2,1,3,1,19.0,70,1,o,348,51,49
1,2,NAN,2.0,NAN,0.4368674,2,0,3,1,19.0,50,1,i,349,49,51
1,2,NAN,3.0,NAN,0.8355379999999999,2,0,3,1,19.0,60,1,o,350,49,51
1,2,NAN,3.0,NAN,0.5865037,2,0,2,1,19.0,60,1,o,351,48,52
1,2,NAN,2.0,NAN,0.5550185999999999,2,0,2,1,19.0,50,1,i,352,48,52
1,1,NAN,4.0,NAN,0.6871616,2,1,1,1,19.0,60,1,p,353,55,45
1,2,NAN,3.0,NAN,0.5211706,2,0,3,1,19.0,70,1,o,354,49,51
1,1,1.0,1.0,0.5619008000000001,0.9845346,2,0,3,1,19.0,60,1,u,355,51,49
1,1,NAN,3.0,NAN,0.7044394,2,1,2,1,19.0,60,1,o,356,52,48
1,2,1.0,4.0,0.3244026,0.4846733,2,1,3,1,19.0,60,1,p,357,49,51
1,1,NAN,3.0,NAN,0.5019117999999999,2,1,2,1,19.0,50,1,o,358,52,48
1,1,NAN,3.0,NAN,0.5196816,2,1,2,1,19.0,60,1,o,359,52,48
1,1,1.0,4.0,0.5391988,0.4687675999999999,2,0,2,1,19.0,60,1,p,360,52,48
1,2,1.0,3.0,0.3596513,0.2994364,2,1,3,1,19.0,60,1,o,361,49,51
1,2,1.0,3.0,0.6080075,0.3520276,2,1,3,1,19.0,50,1,o,362,49,51
1,1,NAN,4.0,NAN,0.3539738,2,1,1,1,19.0,50,1,p,363,55,45
1,2,1.0,3.0,0.8850579,0.3012621,2,1,3,1,19.0,60,1,o,364,49,51
1,1,1.0,NAN,0.5079757,1.1513533,2,0,2,1,19.0,50,1,h,365,52,48
1,2,1.0,3.0,0.5579978,0.2342478999999999,2,1,1,1,19.0,50,1,o,366,45,55
1,1,NAN,3.0,NAN,0.3366494,2,1,1,1,19.0,60,1,o,367,55,45
1,1,NAN,2.0,NAN,0.3382169,2,1,3,1,19.0,50,1,i,368,51,49
1,2,NAN,3.0,NAN,0.3710687,2,0,3,1,19.0,70,1,o,369,49,51
1,1,1.0,NAN,0.9053496,0.8354301,2,0,1,1,19.0,60,1,h,370,55,45
1,1,NAN,2.0,NAN,0.5537366,2,1,2,1,19.0,70,1,i,371,52,48
1,2,1.0,4.0,0.6875155,0.6178808000000001,2,1,2,1,19.0,60,1,p,372,48,52
1,2,1.0,4.0,0.3990182,0.5516214,2,1,1,1,19.0,50,1,p,373,45,55
1,1,1.0,3.0,0.4570846999999999,0.5316524,2,0,2,1,19.0,60,1,o,374,52,48
1,2,1.0,3.0,0.3230252,0.1849449,2,1,1,1,19.0,70,1,o,375,45,55
1,2,1.0,4.0,0.3555445,0.1340802999999999,2,1,1,1,19.0,70,1,p,376,45,55
1,2,1.0,4.0,0.32295,0.1014365,2,1,2,1,19.0,50,1,p,377,48,52
1,1,1.0,4.0,0.3217129,0.1518243,2,0,3,1,19.0,60,1,p,378,51,49
1,1,NAN,3.0,NAN,0.3869127,2,1,1,1,19.0,70,1,o,379,55,45
1,2,1.0,4.0,0.7089328,0.3346125,2,1,2,1,19.0,50,1,p,380,48,52
1,1,NAN,3.0,NAN,0.6523905,2,1,3,1,19.0,50,1,o,381,51,49
1,1,NAN,3.0,NAN,0.3538577,2,1,3,1,19.0,70,1,o,382,51,49
1,1,NAN,4.0,NAN,0.4211130999999999,2,1,1,1,19.0,50,1,p,383,55,45
1,2,1.0,4.0,0.7553131,0.2687928,2,1,2,1,19.0,60,1,p,384,48,52
1,2,1.0,4.0,0.3036208,0.2852973,2,1,1,1,19.0,60,1,p,385,45,55
1,1,1.0,3.0,0.7379145,0.2520396,2,0,2,1,19.0,70,1,o,386,52,48
1,2,1.0,4.0,0.4422866,0.2505546,2,1,2,1,19.0,70,1,p,387,48,52
1,1,NAN,3.0,NAN,0.4032177,2,1,3,1,19.0,70,1,o,388,51,49
1,2,1.0,3.0,0.5557481,0.2347076,2,1,3,1,19.0,70,1,o,389,49,51
2,2,NAN,3.0,NAN,0.4152949999999999,2,0,3,1,19.0,60,1,o,0,49,51
2,2,1.0,3.0,0.4305213,0.2961491,2,1,3,1,19.0,70,1,o,1,49,51
2,1,NAN,4.0,NAN,0.252161,2,1,2,1,19.0,50,1,p,2,52,48
2,1,NAN,3.0,NAN,0.3019393,2,1,2,1,19.0,70,1,o,3,52,48
2,2,1.0,3.0,0.7711475,0.2982732999999999,2,1,2,1,19.0,50,1,o,4,48,52
2,1,NAN,3.0,NAN,0.2313067,2,1,1,1,19.0,50,1,o,5,55,45
2,1,NAN,4.0,NAN,0.1646035,2,1,1,1,19.0,70,1,p,6,55,45
2,2,1.0,3.0,0.3718189,0.3471220999999999,2,1,3,1,19.0,60,1,o,7,49,51
2,2,NAN,3.0,NAN,1.8518411,2,0,3,1,19.0,70,1,o,9,49,51
2,1,NAN,3.0,NAN,0.5350268,2,1,1,1,19.0,60,1,o,10,55,45
2,1,1.0,3.0,0.2387967999999999,0.3624457,2,0,3,1,19.0,70,1,o,11,51,49
2,1,1.0,3.0,0.6539989,0.2793983,2,0,3,1,19.0,60,1,o,12,51,49
2,2,1.0,3.0,0.2537578,0.3133772999999999,2,1,2,1,19.0,60,1,o,13,48,52
2,2,1.0,3.0,0.2727824,0.2796427,2,1,1,1,19.0,50,1,o,14,45,55
2,1,NAN,3.0,NAN,0.700902,2,1,2,1,19.0,70,1,o,15,52,48
2,1,1.0,3.0,0.3707132,0.3307636,2,0,1,1,19.0,50,1,o,16,55,45
2,2,1.0,3.0,0.488458,0.279603,2,1,1,1,19.0,50,1,o,17,45,55
2,2,1.0,3.0,0.3727814,0.2810886,2,1,1,1,19.0,60,1,o,18,45,55
2,2,NAN,3.0,NAN,0.3511730999999999,2,0,2,1,19.0,50,1,o,19,48,52
2,1,NAN,3.0,NAN,0.2844635,2,1,3,1,19.0,50,1,o,20,51,49
2,1,1.0,3.0,0.1883787999999999,0.3478139,2,0,3,1,19.0,50,1,o,21,51,49
2,2,1.0,3.0,0.2727905,0.280194,2,1,2,1,19.0,70,1,o,22,48,52
2,1,1.0,3.0,0.2711803,0.3301299,2,0,2,1,19.0,60,1,o,23,52,48
2,1,1.0,3.0,0.3370172,0.2954112,2,0,2,1,19.0,60,1,o,24,52,48
2,1,1.0,NAN,0.4718866,1.6808897,2,0,3,1,19.0,70,1,h,25,51,49
2,2,1.0,3.0,0.9427417,0.680532,2,1,1,1,19.0,70,1,o,26,45,55
2,2,1.0,3.0,0.4318939,0.3638499,2,1,3,1,19.0,50,1,o,27,49,51
2,2,1.0,3.0,0.9370711,0.3963855,2,1,2,1,19.0,60,1,o,28,48,52
2,1,NAN,3.0,NAN,0.2993818,2,1,1,1,19.0,60,1,o,29,55,45
2,2,1.0,3.0,0.8180333000000001,0.380871,2,1,2,1,19.0,50,1,o,30,48,52
2,1,1.0,3.0,0.5043965,0.2796407,2,0,3,1,19.0,70,1,o,31,51,49
2,2,1.0,3.0,0.4692694,0.2969722,2,1,3,1,19.0,60,1,o,32,49,51
2,1,NAN,3.0,NAN,0.4021135,2,1,1,1,19.0,70,1,o,33,55,45
2,2,1.0,3.0,0.8530742,0.2649103,2,1,3,1,19.0,70,1,o,34,49,51
2,2,1.0,3.0,0.4561762,0.2029158999999999,2,1,2,1,19.0,60,1,o,35,48,52
2,1,1.0,3.0,0.4707291,0.2793036,2,0,2,1,19.0,60,1,o,36,52,48
2,2,1.0,3.0,0.3299715,0.2804064,2,1,2,1,19.0,60,1,o,37,48,52
2,1,NAN,3.0,NAN,0.3821682,2,1,3,1,19.0,70,1,o,38,51,49
2,2,1.0,3.0,0.4360623999999999,0.2298751,2,1,3,1,19.0,70,1,o,39,49,51
2,2,1.0,3.0,0.2927539,0.2459068999999999,2,1,1,1,19.0,50,1,o,40,45,55
2,2,1.0,3.0,0.5066111,0.2312794,2,1,2,1,19.0,70,1,o,41,48,52
2,1,1.0,3.0,0.2224097,0.3482737,2,0,1,1,19.0,50,1,o,42,55,45
2,2,NAN,3.0,NAN,0.3154480999999999,2,0,3,1,19.0,60,1,o,43,49,51
2,1,1.0,3.0,0.1881139,0.2811342,2,0,3,1,19.0,60,1,o,44,51,49
2,1,NAN,4.0,NAN,0.3483683,2,1,1,1,19.0,60,1,p,45,55,45
2,2,1.0,3.0,0.3547192999999999,0.3469672,2,1,1,1,19.0,70,1,o,47,45,55
2,1,1.0,4.0,0.5087005,0.4298069,2,0,2,1,19.0,70,1,p,48,52,48
2,1,NAN,3.0,NAN,0.7511369000000001,2,1,2,1,19.0,70,1,o,49,52,48
2,1,1.0,3.0,0.3829397999999999,0.2978535,2,0,2,1,19.0,60,1,o,50,52,48
2,2,1.0,3.0,0.3043555999999999,0.4012715,2,1,1,1,19.0,60,1,o,51,45,55
2,2,1.0,3.0,0.1546622,0.3131773,2,1,3,1,19.0,50,1,o,52,49,51
2,2,1.0,3.0,0.1706012,0.2785038,2,1,1,1,19.0,70,1,o,53,45,55
2,2,1.0,4.0,0.186818,0.2969274,2,1,2,1,19.0,50,1,p,54,48,52
2,1,1.0,3.0,0.3222704,0.2468384,2,0,3,1,19.0,50,1,o,55,51,49
2,1,1.0,4.0,0.2380607,0.446802,2,0,1,1,19.0,60,1,p,56,55,45
2,1,1.0,3.0,0.1376979,0.2958191,2,0,2,1,19.0,50,1,o,57,52,48
2,1,NAN,3.0,NAN,0.3348007,2,1,1,1,19.0,50,1,o,58,55,45
2,1,1.0,3.0,0.3155636,0.2638439,2,0,3,1,19.0,50,1,o,59,51,49
2,2,1.0,3.0,0.7364144,0.4129007,2,1,2,1,19.0,50,1,o,60,48,52
2,2,1.0,3.0,0.1698667,0.2466882,2,1,2,1,19.0,70,1,o,61,48,52
2,1,1.0,3.0,0.2215697,0.2465219,2,0,3,1,19.0,50,1,o,62,51,49
2,2,1.0,3.0,0.7373674,0.2462276,2,1,1,1,19.0,50,1,o,63,45,55
2,1,NAN,3.0,NAN,0.2148614999999999,2,1,2,1,19.0,60,1,o,64,52,48
2,1,NAN,3.0,NAN,0.1843152,2,1,2,1,19.0,60,1,o,65,52,48
2,1,NAN,3.0,NAN,0.3339774,2,1,3,1,19.0,50,1,o,66,51,49
2,1,NAN,3.0,NAN,0.235704,2,1,3,1,19.0,60,1,o,67,51,49
2,1,1.0,3.0,0.1954193,0.2965749,2,0,2,1,19.0,70,1,o,68,52,48
2,1,1.0,3.0,0.7527351,0.3308805999999999,2,0,1,1,19.0,60,1,o,69,55,45
2,2,NAN,3.0,NAN,0.2510922,2,0,3,1,19.0,50,1,o,70,49,51
2,2,NAN,3.0,NAN,0.0508816,2,0,1,1,19.0,70,1,o,71,45,55
2,2,1.0,3.0,0.6679333000000001,0.2300993,2,1,3,1,19.0,70,1,o,72,49,51
2,2,1.0,3.0,0.854816,0.3451145,2,1,2,1,19.0,60,1,o,73,48,52
2,2,1.0,3.0,0.3888837,0.2148099,2,1,1,1,19.0,60,1,o,74,45,55
2,2,1.0,3.0,0.2552725,0.2311646,2,1,2,1,19.0,60,1,o,75,48,52
2,1,1.0,3.0,0.9120269,0.1969293999999999,2,0,3,1,19.0,70,1,o,76,51,49
2,1,NAN,3.0,NAN,0.2834264999999999,2,1,1,1,19.0,50,1,o,77,55,45
2,1,1.0,3.0,0.518116,0.2468106,2,0,1,1,19.0,60,1,o,78,55,45
2,1,NAN,3.0,NAN,0.0465814,2,1,3,1,19.0,70,1,o,79,51,49
2,2,1.0,3.0,0.8341109,0.2610089,2,1,1,1,19.0,70,1,o,80,45,55
2,1,NAN,3.0,NAN,0.2186364999999999,2,1,2,1,19.0,50,1,o,81,52,48
2,1,1.0,NAN,0.38673,1.7144364,2,0,1,1,19.0,70,1,h,82,55,45
2,1,1.0,NAN,0.7200359000000001,1.2314035,2,0,1,1,19.0,50,1,h,83,55,45
2,2,1.0,3.0,0.6669046999999999,0.2795837,2,1,2,1,19.0,50,1,o,84,48,52
2,2,1.0,3.0,0.5712863,0.3304205,2,1,1,1,19.0,50,1,o,85,45,55
2,1,NAN,3.0,NAN,0.2673612,2,1,2,1,19.0,70,1,o,86,52,48
2,2,1.0,3.0,0.7647225000000001,0.2798552,2,1,3,1,19.0,60,1,o,87,49,51
2,2,1.0,3.0,0.9150498,0.3628015,2,1,3,1,19.0,70,1,o,88,49,51
2,2,1.0,3.0,0.540047,0.2482245,2,1,3,1,19.0,60,1,o,89,49,51
2,1,NAN,3.0,NAN,0.3985284,2,1,1,1,19.0,50,1,o,90,55,45
2,1,1.0,3.0,0.4214742,0.3133692999999999,2,0,2,1,19.0,60,1,o,91,52,48
2,2,1.0,3.0,0.5642771,0.3122537,2,1,3,1,19.0,70,1,o,92,49,51
2,1,1.0,3.0,0.3676042999999999,0.246819,2,0,2,1,19.0,70,1,o,93,52,48
2,1,1.0,3.0,0.7061054,0.5302271,2,0,2,1,19.0,60,1,o,94,52,48
2,1,NAN,3.0,NAN,0.2136542999999999,2,1,3,1,19.0,50,1,o,95,51,49
2,2,1.0,3.0,0.2506145,0.2633268,2,1,3,1,19.0,50,1,o,96,49,51
2,1,NAN,3.0,NAN,0.2645183,2,1,1,1,19.0,60,1,o,97,55,45
2,2,1.0,3.0,0.388045,0.2480065,2,1,3,1,19.0,60,1,o,98,49,51
2,2,1.0,3.0,0.4558175999999999,0.2809872,2,1,2,1,19.0,70,1,o,99,48,52
2,1,1.0,3.0,0.4376242999999999,0.2468438,2,0,3,1,19.0,60,1,o,100,51,49
2,1,NAN,3.0,NAN,0.1319586,2,1,1,1,19.0,70,1,o,101,55,45
2,1,NAN,3.0,NAN,0.2835801,2,1,3,1,19.0,70,1,o,102,51,49
2,2,NAN,3.0,NAN,0.031656,2,0,3,1,19.0,70,1,o,103,49,51
2,2,1.0,3.0,0.4030655999999999,0.2458839,2,1,2,1,19.0,50,1,o,104,48,52
2,1,NAN,3.0,NAN,0.1340825,2,1,3,1,19.0,50,1,o,105,51,49
2,2,1.0,3.0,0.5523680000000001,0.2286791,2,1,1,1,19.0,50,1,o,106,45,55
2,2,NAN,3.0,NAN,0.6682090999999999,2,0,2,1,19.0,60,1,o,107,48,52
2,2,1.0,3.0,0.390536,0.2963815,2,1,2,1,19.0,60,1,o,108,48,52
2,1,NAN,3.0,NAN,0.3008143,2,1,1,1,19.0,50,1,o,109,55,45
2,1,1.0,3.0,0.4174909,0.7472741,2,0,2,1,19.0,50,1,o,110,52,48
2,2,1.0,3.0,0.590539,0.3631493,2,1,1,1,19.0,60,1,o,111,45,55
2,2,1.0,3.0,0.8371805,0.4132136999999999,2,1,1,1,19.0,50,1,o,112,45,55
2,2,NAN,3.0,NAN,0.3820547999999999,2,0,3,1,19.0,60,1,o,113,49,51
2,2,1.0,3.0,0.4456001,0.264394,2,1,2,1,19.0,50,1,o,114,48,52
2,2,1.0,3.0,0.4669377999999999,0.2807449999999999,2,1,1,1,19.0,70,1,o,115,45,55
2,1,NAN,3.0,NAN,0.1343744999999999,2,1,2,1,19.0,70,1,o,116,52,48
2,1,NAN,3.0,NAN,1.265786,2,1,1,1,19.0,60,1,o,117,55,45
2,1,1.0,NAN,0.7058309,1.2127956,2,0,3,1,19.0,70,1,h,118,51,49
2,2,1.0,3.0,0.3907277,0.3303034999999999,2,1,1,1,19.0,70,1,o,119,45,55
2,2,1.0,3.0,0.430595,0.3130255999999999,2,1,3,1,19.0,60,1,o,120,49,51
2,1,NAN,3.0,NAN,0.2020281,2,1,3,1,19.0,70,1,o,121,51,49
2,2,1.0,3.0,0.4727037,0.281558,2,1,1,1,19.0,70,1,o,122,45,55
2,2,NAN,3.0,NAN,0.3652664,2,0,1,1,19.0,50,1,o,123,45,55
2,2,1.0,3.0,0.3568494,0.2645757999999999,2,1,2,1,19.0,70,1,o,124,48,52
2,2,1.0,3.0,0.8549068000000001,0.296394,2,1,2,1,19.0,60,1,o,125,48,52
2,1,NAN,3.0,NAN,0.2840690999999999,2,1,1,1,19.0,60,1,o,126,55,45
2,2,1.0,3.0,0.3711302999999999,0.2634965,2,1,1,1,19.0,50,1,o,127,45,55
2,1,NAN,3.0,NAN,0.2149191,2,1,1,1,19.0,50,1,o,128,55,45
2,2,1.0,3.0,0.3917443,0.2144598,2,1,1,1,19.0,60,1,o,129,45,55
2,2,1.0,3.0,0.4377501,0.1637868999999999,2,1,3,1,19.0,50,1,o,130,49,51
2,1,1.0,3.0,0.6051380999999999,0.280609,2,0,3,1,19.0,50,1,o,131,51,49
2,1,NAN,3.0,NAN,0.2319311999999999,2,1,2,1,19.0,70,1,o,132,52,48
2,2,1.0,3.0,0.3148034,0.2471922999999999,2,1,2,1,19.0,50,1,o,133,48,52
2,1,NAN,3.0,NAN,0.3175770999999999,2,1,1,1,19.0,70,1,o,134,55,45
2,1,NAN,3.0,NAN,0.2168183999999999,2,1,3,1,19.0,60,1,o,135,51,49
2,1,NAN,3.0,NAN,0.5834835999999999,2,1,3,1,19.0,50,1,o,136,51,49
2,2,1.0,3.0,0.3793778,0.2958538,2,1,3,1,19.0,70,1,o,137,49,51
2,2,1.0,3.0,0.3052437,0.2982968,2,1,1,1,19.0,70,1,o,138,45,55
2,2,1.0,3.0,0.3889389,0.2309407,2,1,2,1,19.0,50,1,o,139,48,52
2,2,NAN,3.0,NAN,0.1504339999999999,2,0,2,1,19.0,60,1,o,140,48,52
2,2,1.0,3.0,0.1881862999999999,0.2467236,2,1,3,1,19.0,70,1,o,141,49,51
2,1,NAN,3.0,NAN,0.2477445,2,1,1,1,19.0,50,1,o,142,55,45
2,1,1.0,3.0,0.4706295,0.2292977,2,0,3,1,19.0,70,1,o,143,51,49
2,1,1.0,3.0,0.3696242,0.2283442999999999,2,0,2,1,19.0,60,1,o,144,52,48
2,1,NAN,3.0,NAN,0.2016638,2,1,2,1,19.0,50,1,o,145,52,48
2,1,1.0,3.0,0.5246203,0.2148557,2,0,2,1,19.0,70,1,o,146,52,48
2,1,1.0,3.0,0.4741174,0.1982107,2,0,2,1,19.0,60,1,o,147,52,48
2,2,1.0,3.0,0.3716114,0.1809787999999999,2,1,3,1,19.0,60,1,o,148,49,51
2,1,NAN,3.0,NAN,0.3178362999999999,2,1,1,1,19.0,60,1,o,149,55,45
2,1,NAN,3.0,NAN,0.3509042,2,1,2,1,19.0,50,1,o,150,52,48
2,2,1.0,3.0,0.3495836,0.2466436,2,1,2,1,19.0,60,1,o,151,48,52
2,1,NAN,3.0,NAN,0.3830254,2,1,2,1,19.0,70,1,o,152,52,48
2,2,1.0,3.0,0.68876,0.2813047,2,1,1,1,19.0,50,1,o,153,45,55
2,2,1.0,3.0,0.4726992,0.3809,2,1,1,1,19.0,50,1,o,154,45,55
2,2,1.0,3.0,0.576495,0.2806594,2,1,3,1,19.0,70,1,o,155,49,51
2,1,1.0,3.0,0.5538814000000001,0.246003,2,0,3,1,19.0,50,1,o,156,51,49
2,2,1.0,3.0,0.3578264,0.2118493,2,1,1,1,19.0,70,1,o,157,45,55
2,2,NAN,3.0,NAN,0.2650575999999999,2,0,2,1,19.0,50,1,o,158,48,52
2,2,1.0,3.0,0.4354532999999999,0.2135259,2,1,1,1,19.0,60,1,o,159,45,55
2,2,1.0,4.0,0.4536827,0.2798307,2,1,2,1,19.0,50,1,p,160,48,52
2,2,1.0,4.0,0.447014,0.3147188,2,1,3,1,19.0,60,1,p,161,49,51
2,1,NAN,3.0,NAN,0.2676435,2,1,1,1,19.0,50,1,o,162,55,45
2,1,NAN,4.0,NAN,0.067858,2,1,1,1,19.0,60,1,p,163,55,45
2,1,1.0,4.0,0.7730576,0.3457774,2,0,3,1,19.0,60,1,p,164,51,49
2,2,1.0,3.0,0.438747,0.2970787,2,1,2,1,19.0,60,1,o,165,48,52
2,1,NAN,4.0,NAN,0.3169195999999999,2,1,1,1,19.0,70,1,p,166,55,45
2,1,NAN,4.0,NAN,0.2991871,2,1,3,1,19.0,50,1,p,167,51,49
2,2,1.0,3.0,0.6873389,0.3635472,2,1,1,1,19.0,70,1,o,168,45,55
2,1,NAN,4.0,NAN,0.7676527,2,1,2,1,19.0,60,1,p,169,52,48
2,1,NAN,3.0,NAN,0.2514824,2,1,1,1,19.0,60,1,o,170,55,45
2,1,NAN,3.0,NAN,0.2676058,2,1,2,1,19.0,60,1,o,171,52,48
2,2,1.0,3.0,0.3168762,0.8811023000000001,2,1,3,1,19.0,60,1,o,172,49,51
2,1,NAN,3.0,NAN,0.3305951,2,1,2,1,19.0,70,1,o,173,52,48
2,1,1.0,3.0,0.8867499,0.2785318,2,0,3,1,19.0,70,1,o,175,51,49
2,2,1.0,3.0,0.4043025,0.3134866,2,1,3,1,19.0,50,1,o,176,49,51
2,1,1.0,3.0,0.3564605999999999,0.2306357,2,0,3,1,19.0,70,1,o,177,51,49
2,1,NAN,3.0,NAN,0.318655,2,1,1,1,19.0,50,1,o,178,55,45
2,2,1.0,3.0,0.390498,0.2648546,2,1,2,1,19.0,70,1,o,179,48,52
2,2,1.0,3.0,0.5215227,0.330364,2,1,2,1,19.0,60,1,o,180,48,52
2,1,1.0,3.0,0.8046933000000001,0.2802766,2,0,2,1,19.0,60,1,o,181,52,48
2,2,NAN,3.0,NAN,0.0332774999999999,2,0,3,1,19.0,60,1,o,182,49,51
2,2,1.0,3.0,0.352086,0.2451283,2,1,1,1,19.0,60,1,o,183,45,55
2,1,NAN,3.0,NAN,0.6155579000000001,2,1,1,1,19.0,60,1,o,184,55,45
2,1,NAN,4.0,NAN,0.1350087999999999,2,1,3,1,19.0,70,1,p,185,51,49
2,1,NAN,3.0,NAN,0.2847814,2,1,3,1,19.0,50,1,o,186,51,49
2,2,1.0,3.0,0.4888376,0.2137913999999999,2,1,2,1,19.0,50,1,o,187,48,52
2,2,1.0,3.0,0.4645513,0.2134864999999999,2,1,1,1,19.0,70,1,o,188,45,55
2,2,1.0,3.0,0.3391079999999999,0.2304139999999999,2,1,2,1,19.0,70,1,o,189,48,52
2,1,NAN,3.0,NAN,0.3340281,2,1,3,1,19.0,70,1,o,190,51,49
2,1,1.0,3.0,0.2380498,0.2634647999999999,2,0,2,1,19.0,70,1,o,191,52,48
2,1,NAN,3.0,NAN,0.1328121,2,1,3,1,19.0,50,1,o,192,51,49
2,2,1.0,3.0,0.2039193,0.2144372,2,1,3,1,19.0,60,1,o,193,49,51
2,1,1.0,3.0,0.4048188,0.2142929,2,0,3,1,19.0,60,1,o,194,51,49
2,1,NAN,3.0,NAN,0.0341020999999999,2,1,1,1,19.0,50,1,o,195,55,45
2,1,NAN,3.0,NAN,0.249055,2,1,1,1,19.0,70,1,o,196,55,45
2,2,1.0,3.0,0.2035683,0.2459706,2,1,3,1,19.0,70,1,o,197,49,51
2,2,NAN,3.0,NAN,0.3173617,2,0,1,1,19.0,70,1,o,198,45,55
2,2,1.0,3.0,0.3211560999999999,0.2300106,2,1,1,1,19.0,50,1,o,199,45,55
2,1,NAN,3.0,NAN,0.2666654,2,1,1,1,19.0,60,1,o,200,55,45
2,2,1.0,3.0,0.3056992,0.2314552999999999,2,1,1,1,19.0,50,1,o,201,45,55
2,1,NAN,3.0,NAN,0.0179263,2,1,2,1,19.0,50,1,o,202,52,48
2,2,1.0,3.0,0.2220917999999999,0.2644511,2,1,2,1,19.0,50,1,o,203,48,52
2,1,NAN,3.0,NAN,0.098272,2,1,2,1,19.0,70,1,o,204,52,48
2,2,1.0,3.0,0.4725018,0.2466699,2,1,3,1,19.0,50,1,o,205,49,51
2,1,1.0,NAN,0.6575445,1.3624131000000002,2,0,1,1,19.0,50,1,h,206,55,45
2,1,NAN,3.0,NAN,1.0319055,2,1,2,1,19.0,60,1,o,207,52,48
2,2,1.0,3.0,0.3149134,0.2626099,2,1,3,1,19.0,70,1,o,208,49,51
2,2,1.0,3.0,0.3384225,0.2143586999999999,2,1,2,1,19.0,60,1,o,209,48,52
2,2,1.0,3.0,0.7876566999999999,0.3308791,2,1,2,1,19.0,50,1,o,210,48,52
2,2,1.0,3.0,0.2211085,0.2300192,2,1,1,1,19.0,70,1,o,211,45,55
2,2,1.0,3.0,0.6008260999999999,0.2642387,2,1,3,1,19.0,70,1,o,212,49,51
2,2,1.0,3.0,0.354141,0.2306291,2,1,1,1,19.0,50,1,o,213,45,55
2,1,1.0,3.0,0.4878390999999999,0.2301632,2,0,1,1,19.0,60,1,o,214,55,45
2,1,1.0,3.0,0.6380808000000001,0.2296607,2,0,3,1,19.0,50,1,o,215,51,49
2,1,NAN,3.0,NAN,0.3005842,2,1,2,1,19.0,70,1,o,216,52,48
2,1,NAN,3.0,NAN,0.2512553,2,1,2,1,19.0,50,1,o,217,52,48
2,1,NAN,3.0,NAN,0.8678843,2,1,1,1,19.0,60,1,o,218,55,45
2,1,NAN,3.0,NAN,0.3013495,2,1,3,1,19.0,50,1,o,219,51,49
2,1,NAN,3.0,NAN,0.2162639,2,1,2,1,19.0,60,1,o,220,52,48
2,1,NAN,3.0,NAN,0.3493973,2,1,2,1,19.0,70,1,o,221,52,48
2,2,NAN,3.0,NAN,0.6667985,2,0,3,1,19.0,70,1,o,222,49,51
2,1,NAN,3.0,NAN,0.3143438,2,1,1,1,19.0,50,1,o,223,55,45
2,2,1.0,3.0,0.4177356,0.2627817999999999,2,1,1,1,19.0,70,1,o,224,45,55
2,2,1.0,3.0,0.5697419,0.2314601,2,1,3,1,19.0,60,1,o,225,49,51
2,1,NAN,3.0,NAN,0.2687189,2,1,2,1,19.0,60,1,o,226,52,48
2,2,1.0,3.0,0.8720923,0.3816007999999999,2,1,3,1,19.0,50,1,o,227,49,51
2,1,NAN,3.0,NAN,0.2482274,2,1,3,1,19.0,60,1,o,228,51,49
2,1,NAN,3.0,NAN,0.3178021,2,1,1,1,19.0,70,1,o,229,55,45
2,2,1.0,3.0,0.4713278,0.2630802,2,1,2,1,19.0,50,1,o,230,48,52
2,2,1.0,3.0,0.4223835,0.2637117,2,1,2,1,19.0,60,1,o,231,48,52
2,1,NAN,3.0,NAN,0.1482216,2,1,1,1,19.0,50,1,o,232,55,45
2,2,1.0,3.0,0.2890575999999999,0.2479007999999999,2,1,2,1,19.0,70,1,o,233,48,52
2,2,1.0,3.0,0.6546602,0.2809797,2,1,3,1,19.0,60,1,o,234,49,51
2,2,1.0,3.0,0.4206772,0.2634031,2,1,1,1,19.0,50,1,o,235,45,55
2,2,1.0,3.0,0.1914561,0.2133224,2,1,2,1,19.0,60,1,o,236,48,52
2,1,NAN,3.0,NAN,0.1488591,2,1,3,1,19.0,70,1,o,237,51,49
2,2,1.0,3.0,0.3558989999999999,0.2294328,2,1,1,1,19.0,60,1,o,238,45,55
2,1,NAN,3.0,NAN,0.0508971,2,1,3,1,19.0,70,1,o,239,51,49
2,2,1.0,3.0,0.848316,0.3634934999999999,2,1,3,1,19.0,60,1,o,240,49,51
2,1,1.0,3.0,0.4519626,0.2645862,2,0,3,1,19.0,70,1,o,241,51,49
2,2,1.0,3.0,0.1793215,0.2603449,2,1,3,1,19.0,60,1,o,242,49,51
2,2,1.0,3.0,0.2387452,0.2305572,2,1,2,1,19.0,50,1,o,243,48,52
2,1,NAN,3.0,NAN,0.1506438,2,1,3,1,19.0,60,1,o,244,51,49
2,2,1.0,3.0,0.1205836,0.2123977,2,1,2,1,19.0,70,1,o,245,48,52
2,1,NAN,3.0,NAN,0.0659268,2,1,3,1,19.0,50,1,o,246,51,49
2,2,1.0,3.0,0.2555042,0.1964933,2,1,1,1,19.0,60,1,o,247,45,55
2,2,1.0,3.0,0.4709592999999999,0.2461719999999999,2,1,2,1,19.0,60,1,o,248,48,52
2,1,NAN,4.0,NAN,0.2672904,2,1,1,1,19.0,50,1,p,249,55,45
2,1,1.0,3.0,0.6794498000000001,0.3642614,2,0,2,1,19.0,70,1,o,250,52,48
2,2,1.0,3.0,0.5381125,0.1978956,2,1,3,1,19.0,50,1,o,251,49,51
2,1,1.0,3.0,0.4971335999999999,0.1635641,2,0,2,1,19.0,60,1,o,252,52,48
2,1,NAN,3.0,NAN,0.3177083,2,1,3,1,19.0,50,1,o,253,51,49
2,1,1.0,3.0,0.491855,0.230228,2,0,1,1,19.0,60,1,o,254,55,45
2,2,1.0,3.0,0.5417278,0.4301519,2,1,3,1,19.0,70,1,o,255,49,51
2,1,NAN,3.0,NAN,0.1505246,2,1,1,1,19.0,70,1,o,256,55,45
2,1,NAN,3.0,NAN,0.2849784,2,1,2,1,19.0,60,1,o,257,52,48
2,1,NAN,3.0,NAN,0.1183414,2,1,3,1,19.0,70,1,o,258,51,49
2,2,NAN,3.0,NAN,0.2841323,2,0,2,1,19.0,60,1,o,259,48,52
2,1,NAN,3.0,NAN,0.1007194,2,1,1,1,19.0,50,1,o,260,55,45
2,1,NAN,3.0,NAN,0.333868,2,1,2,1,19.0,70,1,o,261,52,48
2,2,1.0,3.0,0.6360891,0.2114407,2,1,1,1,19.0,50,1,o,262,45,55
2,2,1.0,3.0,0.2543793,0.212731,2,1,1,1,19.0,70,1,o,263,45,55
2,2,1.0,3.0,0.2198705,0.2455748999999999,2,1,3,1,19.0,70,1,o,264,49,51
2,2,1.0,3.0,0.5202971,0.2803324,2,1,2,1,19.0,50,1,o,265,48,52
2,2,1.0,3.0,0.4194795,0.1812473,2,1,1,1,19.0,50,1,o,266,45,55
2,2,1.0,3.0,0.4212869999999999,0.1980652,2,1,1,1,19.0,70,1,o,267,45,55
2,1,1.0,3.0,0.7382694000000001,0.2476605,2,0,2,1,19.0,50,1,o,268,52,48
2,1,1.0,3.0,0.4179388,0.17875,2,0,1,1,19.0,60,1,o,269,55,45
2,2,1.0,3.0,0.5318761,0.2955018,2,1,2,1,19.0,60,1,o,270,48,52
2,2,1.0,3.0,0.3054628,0.2472549,2,1,2,1,19.0,50,1,o,271,48,52
2,2,1.0,3.0,0.2544927,0.2123662,2,1,1,1,19.0,50,1,o,272,45,55
2,2,1.0,3.0,0.5413528000000001,0.2646191,2,1,2,1,19.0,50,1,o,273,48,52
2,1,1.0,3.0,0.4483189,0.2312525999999999,2,0,2,1,19.0,60,1,o,274,52,48
2,1,NAN,4.0,NAN,0.0814641,2,1,1,1,19.0,60,1,p,275,55,45
2,1,NAN,4.0,NAN,0.2825032,2,1,1,1,19.0,70,1,p,276,55,45
2,2,NAN,3.0,NAN,0.1651812999999999,2,0,3,1,19.0,50,1,o,277,49,51
2,1,NAN,3.0,NAN,0.3315750999999999,2,1,2,1,19.0,60,1,o,278,52,48
2,2,1.0,3.0,0.3899625,0.2254895,2,1,3,1,19.0,70,1,o,279,49,51
2,2,NAN,3.0,NAN,0.4830647,2,0,3,1,19.0,60,1,o,280,49,51
2,1,NAN,3.0,NAN,0.2682437,2,1,1,1,19.0,50,1,o,281,55,45
2,1,NAN,3.0,NAN,0.1350568,2,1,3,1,19.0,70,1,o,282,51,49
2,2,1.0,3.0,0.3565244,0.2648208,2,1,1,1,19.0,70,1,o,283,45,55
2,1,1.0,3.0,0.7293441999999999,0.2453725,2,0,2,1,19.0,70,1,o,284,52,48
2,1,NAN,3.0,NAN,0.300898,2,1,3,1,19.0,50,1,o,285,51,49
2,2,1.0,3.0,0.5734094,0.2460427999999999,2,1,3,1,19.0,60,1,o,286,49,51
2,2,1.0,3.0,0.3682207,0.1795771,2,1,2,1,19.0,70,1,o,287,48,52
2,1,NAN,3.0,NAN,0.0817326,2,1,1,1,19.0,50,1,o,288,55,45
2,2,1.0,3.0,0.3389785999999999,0.2474922,2,1,1,1,19.0,70,1,o,289,45,55
2,2,1.0,3.0,0.4039265999999999,0.1973662,2,1,1,1,19.0,50,1,o,290,45,55
2,1,NAN,3.0,NAN,0.2174549,2,1,3,1,19.0,60,1,o,291,51,49
2,2,1.0,3.0,0.2033833,0.1627565,2,1,2,1,19.0,60,1,o,292,48,52
2,2,1.0,3.0,0.3415478,0.3135169,2,1,1,1,19.0,60,1,o,293,45,55
2,1,NAN,3.0,NAN,0.2671599,2,1,1,1,19.0,60,1,o,294,55,45
2,1,1.0,3.0,0.4936041,0.1788101,2,0,3,1,19.0,70,1,o,295,51,49
2,1,NAN,3.0,NAN,0.2483058999999999,2,1,3,1,19.0,50,1,o,296,51,49
2,2,1.0,3.0,0.555808,0.1977542,2,1,3,1,19.0,70,1,o,297,49,51
2,1,NAN,3.0,NAN,0.1516225,2,1,2,1,19.0,70,1,o,298,52,48
2,1,NAN,3.0,NAN,0.3505643,2,1,2,1,19.0,50,1,o,299,52,48
2,2,1.0,3.0,0.2584888,0.5613963000000001,2,1,1,1,19.0,70,1,o,301,45,55
2,1,1.0,3.0,0.3374334,0.2462552999999999,2,0,3,1,19.0,70,1,o,302,51,49
2,2,1.0,3.0,0.300942,0.279471,2,1,1,1,19.0,60,1,o,303,45,55
2,2,1.0,3.0,0.3193309,0.2455084,2,1,1,1,19.0,50,1,o,304,45,55
2,1,NAN,3.0,NAN,0.6660957,2,1,2,1,19.0,70,1,o,305,52,48
2,1,1.0,3.0,0.2247829999999999,0.2478388,2,0,2,1,19.0,60,1,o,306,52,48
2,2,1.0,3.0,0.2298796,0.2469655,2,1,2,1,19.0,50,1,o,307,48,52
2,2,1.0,3.0,0.3208017,0.2292915,2,1,3,1,19.0,70,1,o,308,49,51
2,2,1.0,3.0,0.1349,0.1804293,2,1,3,1,19.0,60,1,o,309,49,51
2,2,1.0,3.0,0.3209517,0.2134208,2,1,2,1,19.0,60,1,o,310,48,52
2,2,NAN,3.0,NAN,0.2498572999999999,2,0,1,1,19.0,50,1,o,311,45,55
2,1,NAN,4.0,NAN,0.4148814999999999,2,1,1,1,19.0,50,1,p,312,55,45
2,1,NAN,3.0,NAN,0.2846914,2,1,2,1,19.0,60,1,o,313,52,48
2,1,NAN,3.0,NAN,0.0512179,2,1,1,1,19.0,60,1,o,314,55,45
2,1,1.0,3.0,0.3384685,0.1973728,2,0,3,1,19.0,70,1,o,315,51,49
2,2,1.0,3.0,0.5701663,0.1461532,2,1,3,1,19.0,50,1,o,316,49,51
2,2,1.0,3.0,0.3224462,0.2297123999999999,2,1,3,1,19.0,70,1,o,317,49,51
2,1,NAN,3.0,NAN,0.0297751,2,1,3,1,19.0,50,1,o,318,51,49
2,1,1.0,3.0,0.3016209,0.2128717,2,0,3,1,19.0,60,1,o,319,51,49
2,2,1.0,3.0,0.3516079,0.162427,2,1,2,1,19.0,50,1,o,320,48,52
2,1,NAN,3.0,NAN,0.2349551,2,1,2,1,19.0,50,1,o,321,52,48
2,1,NAN,3.0,NAN,0.0686003999999999,2,1,1,1,19.0,50,1,o,322,55,45
2,2,1.0,3.0,0.4140019,0.1813186,2,1,2,1,19.0,70,1,o,323,48,52
2,2,1.0,3.0,0.3053643,0.1634527,2,1,1,1,19.0,70,1,o,324,45,55
2,1,NAN,3.0,NAN,0.1165417,2,1,1,1,19.0,70,1,o,325,55,45
2,1,NAN,3.0,NAN,0.1665412999999999,2,1,3,1,19.0,50,1,o,326,51,49
2,2,1.0,3.0,0.2681053,0.2464544,2,1,2,1,19.0,60,1,o,327,48,52
2,1,NAN,4.0,NAN,0.3156624,2,1,1,1,19.0,60,1,p,328,55,45
2,2,1.0,3.0,0.3370312,0.1803567,2,1,3,1,19.0,60,1,o,329,49,51
2,1,NAN,3.0,NAN,0.8178225,2,1,1,1,19.0,50,1,o,330,55,45
2,1,1.0,NAN,0.5764397,1.4300342,2,0,1,1,19.0,70,1,h,331,55,45
2,1,1.0,3.0,0.6705814999999999,0.2963159,2,0,3,1,19.0,60,1,o,332,51,49
2,1,1.0,3.0,0.2677497,0.2448292999999999,2,0,2,1,19.0,50,1,o,333,52,48
2,1,NAN,3.0,NAN,0.1174243,2,1,3,1,19.0,70,1,o,334,51,49
2,1,NAN,3.0,NAN,0.1316819,2,1,2,1,19.0,60,1,o,335,52,48
2,1,NAN,3.0,NAN,0.016728,2,1,2,1,19.0,70,1,o,336,52,48
2,2,1.0,3.0,0.3723515,0.2643854,2,1,3,1,19.0,70,1,o,337,49,51
2,1,NAN,3.0,NAN,0.0847523,2,1,3,1,19.0,50,1,o,338,51,49
2,2,1.0,3.0,0.6406056,0.2803069,2,1,2,1,19.0,50,1,o,339,48,52
2,1,NAN,3.0,NAN,0.1970634,2,1,1,1,19.0,60,1,o,340,55,45
2,2,1.0,3.0,0.5394889,0.2128814,2,1,3,1,19.0,60,1,o,341,49,51
2,1,NAN,3.0,NAN,1.1981649,2,1,2,1,19.0,70,1,o,342,52,48
2,1,NAN,4.0,NAN,0.3990374,2,1,3,1,19.0,50,1,p,343,51,49
2,2,1.0,3.0,0.4318404,0.2291094,2,1,2,1,19.0,50,1,o,344,48,52
2,2,NAN,3.0,NAN,0.1508475,2,0,2,1,19.0,70,1,o,345,48,52
2,2,1.0,3.0,0.4556451,0.1966216,2,1,2,1,19.0,60,1,o,346,48,52
2,1,1.0,NAN,0.3522927999999999,1.4979835,2,0,1,1,19.0,60,1,h,347,55,45
2,2,1.0,3.0,0.738604,0.2969325,2,1,1,1,19.0,60,1,o,348,45,55
2,2,1.0,3.0,0.5896869,0.2472801,2,1,3,1,19.0,50,1,o,349,49,51
2,2,NAN,3.0,NAN,0.3166363,2,0,3,1,19.0,60,1,o,350,49,51
2,2,1.0,3.0,0.2090623999999999,0.2465409999999999,2,1,3,1,19.0,70,1,o,351,49,51
2,1,NAN,3.0,NAN,0.1835653,2,1,1,1,19.0,50,1,o,352,55,45
2,2,1.0,3.0,0.5416354999999999,0.2479857999999999,2,1,2,1,19.0,60,1,o,353,48,52
2,2,1.0,3.0,0.3209829,0.1786871,2,1,1,1,19.0,50,1,o,354,45,55
2,1,NAN,3.0,NAN,0.0846727,2,1,2,1,19.0,60,1,o,355,52,48
2,2,1.0,3.0,0.1710668,0.2125284999999999,2,1,1,1,19.0,70,1,o,356,45,55
2,1,NAN,3.0,NAN,0.1497674,2,1,3,1,19.0,70,1,o,357,51,49
2,2,1.0,3.0,0.2871819,0.2127616,2,1,1,1,19.0,50,1,o,358,45,55
2,2,1.0,3.0,0.4491367999999999,0.4456819999999999,2,1,1,1,19.0,70,1,o,359,45,55
2,1,1.0,3.0,0.4357785,0.2300717,2,0,2,1,19.0,70,1,o,360,52,48
2,1,1.0,3.0,0.2218607999999999,0.2813372,2,0,2,1,19.0,50,1,o,361,52,48
2,2,1.0,3.0,0.2393382999999999,0.2458844,2,1,1,1,19.0,50,1,o,362,45,55
2,1,1.0,3.0,0.2055985,0.8311593,2,0,1,1,19.0,60,1,o,363,55,45
2,2,1.0,3.0,0.5673686,0.1959662999999999,2,1,3,1,19.0,70,1,o,364,49,51
2,2,1.0,3.0,0.3979714,0.2631739,2,1,2,1,19.0,50,1,o,365,48,52
2,1,NAN,3.0,NAN,0.3499511,2,1,2,1,19.0,60,1,o,366,52,48
2,1,NAN,3.0,NAN,0.1831479,2,1,2,1,19.0,70,1,o,367,52,48
2,2,1.0,3.0,0.2023822,0.1956722,2,1,1,1,19.0,70,1,o,368,45,55
2,2,1.0,3.0,0.2855804,0.1790639,2,1,3,1,19.0,60,1,o,369,49,51
2,1,1.0,3.0,0.4223615,0.3810265,2,0,3,1,19.0,70,1,o,370,51,49
2,2,1.0,3.0,0.5564760999999999,0.2135014999999999,2,1,2,1,19.0,50,1,o,371,48,52
2,1,NAN,3.0,NAN,0.3167645,2,1,1,1,19.0,70,1,o,372,55,45
2,1,1.0,3.0,0.3700154,0.1627602,2,0,2,1,19.0,60,1,o,373,52,48
2,2,1.0,3.0,0.4190096,0.1964217999999999,2,1,1,1,19.0,60,1,o,374,45,55
2,1,NAN,3.0,NAN,0.6835176,2,1,1,1,19.0,50,1,o,375,55,45
2,2,1.0,3.0,0.4122184,0.2128435,2,1,1,1,19.0,50,1,o,376,45,55
2,1,NAN,3.0,NAN,0.2183728999999999,2,1,3,1,19.0,60,1,o,377,51,49
2,2,1.0,3.0,0.3720762,0.1800236,2,1,2,1,19.0,60,1,o,378,48,52
2,1,NAN,3.0,NAN,0.134508,2,1,1,1,19.0,50,1,o,379,55,45
2,1,1.0,3.0,0.6146718000000001,0.1799994,2,0,3,1,19.0,70,1,o,380,51,49
2,1,NAN,3.0,NAN,0.049106,2,1,3,1,19.0,50,1,o,381,51,49
2,1,NAN,3.0,NAN,0.1502501,2,1,1,1,19.0,60,1,o,382,55,45
2,2,1.0,3.0,0.3039555,0.179446,2,1,3,1,19.0,50,1,o,383,49,51
2,2,1.0,3.0,0.4546686,0.1459157,2,1,1,1,19.0,70,1,o,384,45,55
2,2,1.0,3.0,0.4881710999999999,0.2135427,2,1,3,1,19.0,70,1,o,385,49,51
2,1,1.0,3.0,0.3198255,0.163247,2,0,3,1,19.0,50,1,o,386,51,49
2,2,1.0,3.0,0.4233914000000001,0.1801616,2,1,2,1,19.0,70,1,o,387,48,52
2,2,1.0,3.0,0.3850915,0.1949515,2,1,2,1,19.0,60,1,o,388,48,52
2,2,1.0,3.0,0.2036112,0.180077,2,1,3,1,19.0,60,1,o,389,49,51
3,2,1.0,3.0,0.7043249,1.2967263,2,1,2,1,NAN,70,1,o,0,48,52
3,1,1.0,3.0,0.5556161000000001,0.7817399,2,0,1,1,NAN,70,1,o,1,55,45
3,2,1.0,4.0,0.6381574000000001,0.4650235,2,1,3,1,NAN,50,1,p,2,49,51
3,1,NAN,4.0,NAN,0.6827621,2,1,3,1,NAN,50,1,p,3,51,49
3,1,1.0,4.0,0.4037145,0.4986313,2,0,3,1,NAN,50,1,p,4,51,49
3,1,NAN,3.0,NAN,1.4345981,2,1,2,1,NAN,70,1,o,5,52,48
3,1,1.0,4.0,0.5715975999999999,0.6142794,2,0,1,1,NAN,60,1,p,6,55,45
3,1,NAN,4.0,NAN,0.5163598,2,1,2,1,NAN,50,1,p,7,52,48
3,2,1.0,4.0,0.8018849,0.7129393,2,1,1,1,NAN,50,1,p,8,45,55
3,2,1.0,4.0,0.5773973000000001,0.4979536,2,1,1,1,NAN,50,1,p,9,45,55
3,2,NAN,3.0,NAN,1.6510308,2,0,2,1,NAN,60,1,o,10,48,52
3,1,1.0,3.0,0.6052510999999999,0.7648201,2,0,3,1,NAN,60,1,o,11,51,49
3,2,NAN,NAN,NAN,1.6038668,2,0,1,1,NAN,70,1,h,12,45,55
3,1,1.0,3.0,0.7347063,0.7136701,2,0,1,1,NAN,50,1,o,13,55,45
3,1,1.0,3.0,0.8862395000000001,0.4638715,2,0,2,1,NAN,60,1,o,14,52,48
3,2,NAN,1.0,NAN,1.5155107,2,0,2,1,NAN,60,1,u,15,48,52
3,1,1.0,3.0,0.4984452999999999,0.4637278,2,0,3,1,NAN,70,1,o,16,51,49
3,2,1.0,3.0,0.6214002,0.3792913,2,1,1,1,NAN,60,1,o,17,45,55
3,2,1.0,3.0,0.7039151,0.431663,2,1,3,1,NAN,70,1,o,18,49,51
3,2,1.0,4.0,0.6338714,1.2146128,2,1,3,1,NAN,60,1,p,19,49,51
3,1,NAN,2.0,NAN,0.8328532,2,1,2,1,NAN,60,1,i,20,52,48
3,1,NAN,2.0,NAN,0.9842174,2,1,1,1,NAN,60,1,i,21,55,45
3,2,1.0,3.0,0.4236741,0.9299613,2,1,1,1,NAN,70,1,o,22,45,55
3,1,NAN,3.0,NAN,1.3838567,2,1,1,1,NAN,50,1,o,23,55,45
3,2,NAN,2.0,NAN,0.3988757,2,0,3,1,NAN,70,1,i,24,49,51
3,1,1.0,3.0,0.4928174,0.6646901999999999,2,0,3,1,NAN,70,1,o,25,51,49
3,2,NAN,3.0,NAN,0.6011663,2,0,2,1,NAN,50,1,o,26,48,52
3,2,1.0,3.0,0.5465422,0.4459275,2,1,2,1,NAN,50,1,o,27,48,52
3,1,1.0,2.0,0.3386328,1.2622448999999998,2,0,2,1,NAN,70,1,i,28,52,48
3,2,1.0,3.0,0.6364465,0.5307755999999999,2,1,3,1,NAN,60,1,o,29,49,51
3,2,1.0,3.0,0.7372816,0.8283521999999999,2,1,2,1,NAN,60,1,o,30,48,52
3,1,1.0,2.0,0.6418596,1.2971284,2,0,2,1,NAN,60,1,i,31,52,48
3,1,NAN,3.0,NAN,1.2662147,2,1,1,1,NAN,50,1,o,32,55,45
3,1,1.0,3.0,0.5347685999999999,0.5977511,2,0,2,1,NAN,60,1,o,33,52,48
3,1,1.0,3.0,0.5034236,0.6977944,2,0,3,1,NAN,70,1,o,34,51,49
3,1,NAN,3.0,NAN,0.9520004,2,1,2,1,NAN,70,1,o,35,52,48
3,2,1.0,3.0,0.7215312,0.76352,2,1,2,1,NAN,50,1,o,36,48,52
3,2,1.0,3.0,0.921194,0.4975104,2,1,1,1,NAN,50,1,o,37,45,55
3,1,NAN,3.0,NAN,0.4742142,2,1,1,1,NAN,60,1,o,38,55,45
3,2,1.0,3.0,0.5197212999999999,0.4466923,2,1,1,1,NAN,50,1,o,39,45,55
3,2,NAN,3.0,NAN,0.4139010999999999,2,0,3,1,NAN,50,1,o,40,49,51
3,1,NAN,3.0,NAN,0.4348434,2,1,1,1,NAN,50,1,o,41,55,45
3,2,1.0,3.0,0.638406,0.3816083,2,1,2,1,NAN,50,1,o,42,48,52
3,2,1.0,3.0,0.4560775999999999,0.4146253,2,1,3,1,NAN,60,1,o,43,49,51
3,2,NAN,3.0,NAN,0.3676244999999999,2,0,3,1,NAN,70,1,o,44,49,51
3,2,NAN,3.0,NAN,0.4673643,2,0,3,1,NAN,70,1,o,45,49,51
3,2,1.0,3.0,0.5212414000000001,0.5311180999999999,2,1,3,1,NAN,60,1,o,46,49,51
3,1,NAN,3.0,NAN,0.4008018,2,1,3,1,NAN,60,1,o,47,51,49
3,1,NAN,4.0,NAN,0.0340428,2,1,1,1,NAN,70,1,p,48,55,45
3,2,1.0,4.0,0.7043206999999999,0.3791337,2,1,1,1,NAN,70,1,p,49,45,55
3,1,NAN,3.0,NAN,1.2511647,2,1,3,1,NAN,50,1,o,50,51,49
3,1,NAN,3.0,NAN,0.3516869999999999,2,1,2,1,NAN,70,1,o,51,52,48
3,1,1.0,3.0,0.6181734,0.5298027,2,0,2,1,NAN,50,1,o,52,52,48
3,1,NAN,3.0,NAN,0.534303,2,1,3,1,NAN,70,1,o,53,51,49
3,1,NAN,4.0,NAN,0.5489383000000001,2,1,3,1,NAN,50,1,p,54,51,49
3,2,NAN,4.0,NAN,1.0156473,2,0,2,1,NAN,60,1,p,55,48,52
3,1,NAN,3.0,NAN,0.9338883,2,1,1,1,NAN,60,1,o,56,55,45
3,2,1.0,4.0,0.3555038,0.4649485,2,1,1,1,NAN,70,1,p,57,45,55
3,2,1.0,2.0,0.9054781,1.2479407,2,1,2,1,NAN,70,1,i,58,48,52
3,2,1.0,4.0,0.5541316999999999,0.4817882,2,1,1,1,NAN,60,1,p,59,45,55
3,1,1.0,4.0,0.8543245,0.5807041000000001,2,0,3,1,NAN,50,1,p,60,51,49
3,1,NAN,2.0,NAN,0.7507088000000001,2,1,1,1,NAN,60,1,i,61,55,45
3,2,1.0,4.0,0.2933540999999999,0.3634625999999999,2,1,2,1,NAN,60,1,p,62,48,52
3,2,1.0,4.0,0.3536085,0.2949857,2,1,1,1,NAN,60,1,p,63,45,55
3,1,1.0,2.0,0.4403709,0.5611041999999999,2,0,2,1,NAN,70,1,i,64,52,48
3,1,1.0,4.0,0.8748645,0.347989,2,0,3,1,NAN,70,1,p,65,51,49
3,2,NAN,2.0,NAN,1.0680801000000002,2,0,3,1,NAN,70,1,i,66,49,51
3,2,1.0,4.0,0.5867007,0.3643225999999999,2,1,2,1,NAN,60,1,p,67,48,52
3,1,NAN,4.0,NAN,0.4489996,2,1,2,1,NAN,70,1,p,68,52,48
3,2,1.0,2.0,0.5043384,0.9810116,2,1,3,1,NAN,60,1,i,69,49,51
3,2,NAN,2.0,NAN,0.8841638,2,0,1,1,NAN,50,1,i,70,45,55
3,1,NAN,2.0,NAN,0.4838641999999999,2,1,3,1,NAN,70,1,i,71,51,49
3,2,NAN,2.0,NAN,0.7001594,2,0,2,1,NAN,50,1,i,72,48,52
3,1,NAN,2.0,NAN,0.401173,2,1,3,1,NAN,50,1,i,73,51,49
3,1,NAN,2.0,NAN,0.4315652,2,1,1,1,NAN,50,1,i,74,55,45
3,1,NAN,4.0,NAN,0.8316804,2,1,1,1,NAN,70,1,p,75,55,45
3,2,1.0,4.0,0.8541221999999999,0.4309623999999999,2,1,1,1,NAN,50,1,p,76,45,55
3,1,NAN,4.0,NAN,0.348381,2,1,2,1,NAN,60,1,p,77,52,48
3,2,1.0,4.0,0.5186994,0.3795174,2,1,2,1,NAN,70,1,p,78,48,52
3,2,NAN,4.0,NAN,0.4034869,2,0,3,1,NAN,50,1,p,79,49,51
3,2,1.0,4.0,0.287128,0.4297398,2,1,2,1,NAN,50,1,p,80,48,52
3,1,NAN,4.0,NAN,0.5683655,2,1,1,1,NAN,50,1,p,81,55,45
3,2,NAN,4.0,NAN,0.3016244,2,0,3,1,NAN,70,1,p,82,49,51
3,2,NAN,4.0,NAN,0.7316451999999999,2,0,3,1,NAN,60,1,p,83,49,51
3,1,1.0,4.0,0.3546179,0.3958544,2,0,2,1,NAN,50,1,p,84,52,48
3,1,1.0,4.0,0.1366875,0.8477099,2,0,3,1,NAN,60,1,p,85,51,49
3,2,1.0,4.0,0.5706538000000001,0.4797031,2,1,1,1,NAN,70,1,p,86,45,55
3,2,1.0,4.0,0.3818526,0.4142439,2,1,1,1,NAN,70,1,p,87,45,55
3,1,NAN,4.0,NAN,0.2996147,2,1,1,1,NAN,60,1,p,88,55,45
3,1,1.0,4.0,0.772038,0.3812947,2,0,2,1,NAN,60,1,p,89,52,48
3,1,NAN,3.0,NAN,1.4507155,2,1,1,1,NAN,60,1,o,90,55,45
3,1,1.0,4.0,0.4676951,0.647805,2,0,1,1,NAN,70,1,p,91,55,45
3,2,1.0,4.0,0.8460218,0.4471005,2,1,3,1,NAN,70,1,p,92,49,51
3,2,1.0,4.0,0.3871154,0.4141202999999999,2,1,1,1,NAN,60,1,p,93,45,55
3,1,NAN,4.0,NAN,0.1507349999999999,2,1,2,1,NAN,60,1,p,94,52,48
3,2,1.0,4.0,0.4878227,0.3803254,2,1,3,1,NAN,60,1,p,95,49,51
3,2,1.0,4.0,0.6033178000000001,0.4279513,2,1,2,1,NAN,60,1,p,96,48,52
3,2,NAN,4.0,NAN,0.301125,2,0,1,1,NAN,50,1,p,97,45,55
3,2,1.0,4.0,0.4052725,0.4472786,2,1,2,1,NAN,50,1,p,98,48,52
3,1,NAN,4.0,NAN,0.3850247,2,1,3,1,NAN,50,1,p,99,51,49
3,2,NAN,4.0,NAN,0.4175417,2,0,1,1,NAN,50,1,p,100,45,55
3,1,NAN,2.0,NAN,1.7984380000000002,2,1,1,1,NAN,50,1,i,101,55,45
3,1,1.0,4.0,0.6211525,0.4798369,2,0,2,1,NAN,70,1,p,102,52,48
3,1,1.0,4.0,0.3684005,0.6129203000000001,2,0,3,1,NAN,70,1,p,103,51,49
3,2,1.0,4.0,0.5843395,0.3952315,2,1,3,1,NAN,60,1,p,104,49,51
3,1,1.0,4.0,0.7216863,0.5148723,2,0,2,1,NAN,50,1,p,105,52,48
3,1,NAN,4.0,NAN,0.3848955999999999,2,1,2,1,NAN,70,1,p,106,52,48
3,2,1.0,4.0,0.4219073,0.331029,2,1,3,1,NAN,70,1,p,107,49,51
3,2,1.0,4.0,0.5917892,0.3649467999999999,2,1,2,1,NAN,60,1,p,108,48,52
3,2,1.0,4.0,0.5214757000000001,0.3477369999999999,2,1,1,1,NAN,70,1,p,109,45,55
3,2,1.0,4.0,0.2044698999999999,0.5438868,2,1,1,1,NAN,70,1,p,110,45,55
3,1,1.0,2.0,0.2817344,1.6116335,2,0,3,1,NAN,50,1,i,111,51,49
3,1,NAN,4.0,NAN,0.5005744000000001,2,1,3,1,NAN,60,1,p,112,51,49
3,1,NAN,4.0,NAN,1.0514306999999998,2,1,2,1,NAN,60,1,p,113,52,48
3,1,NAN,4.0,NAN,0.4008839,2,1,3,1,NAN,70,1,p,114,51,49
3,1,NAN,4.0,NAN,0.3513560999999999,2,1,1,1,NAN,60,1,p,115,55,45
3,2,NAN,2.0,NAN,0.4667202,2,0,2,1,NAN,50,1,i,116,48,52
3,1,NAN,2.0,NAN,0.350871,2,1,1,1,NAN,50,1,i,117,55,45
3,2,1.0,4.0,0.5862626999999999,0.4972376,2,1,2,1,NAN,70,1,p,119,48,52
3,1,1.0,4.0,0.7161881,0.9135862,2,0,3,1,NAN,70,1,p,120,51,49
3,1,1.0,4.0,0.7217199000000001,0.3817372,2,0,2,1,NAN,50,1,p,121,52,48
3,2,1.0,4.0,0.3042405999999999,0.3296328,2,1,1,1,NAN,50,1,p,122,45,55
3,1,NAN,4.0,NAN,0.3352069,2,1,1,1,NAN,70,1,p,123,55,45
3,1,NAN,4.0,NAN,0.317765,2,1,2,1,NAN,70,1,p,124,52,48
3,1,NAN,4.0,NAN,1.0659461,2,1,3,1,NAN,50,1,p,125,51,49
3,1,NAN,4.0,NAN,0.9337681,2,1,3,1,NAN,50,1,p,126,51,49
3,1,1.0,4.0,0.7407335999999999,0.6636605,2,0,3,1,NAN,70,1,p,127,51,49
3,2,1.0,4.0,0.6179625,0.4466734,2,1,3,1,NAN,60,1,p,128,49,51
3,2,NAN,2.0,NAN,1.5350246,2,0,1,1,NAN,70,1,i,129,45,55
3,1,NAN,2.0,NAN,1.1013069,2,1,2,1,NAN,60,1,i,130,52,48
3,2,1.0,4.0,0.5902689999999999,0.3482589,2,1,1,1,NAN,60,1,p,131,45,55
3,2,NAN,2.0,NAN,1.3677401000000002,2,0,1,1,NAN,70,1,i,132,45,55
3,1,1.0,4.0,0.5732314000000001,0.4287321,2,0,3,1,NAN,60,1,p,133,51,49
3,2,1.0,4.0,0.5845576,0.3311244,2,1,1,1,NAN,50,1,p,134,45,55
3,2,NAN,4.0,NAN,0.3485692999999999,2,0,2,1,NAN,50,1,p,135,48,52
3,2,NAN,4.0,NAN,0.3327751,2,0,2,1,NAN,60,1,p,136,48,52
3,2,NAN,4.0,NAN,0.2353535,2,0,3,1,NAN,70,1,p,137,49,51
3,1,1.0,4.0,0.6222158,0.3815485999999999,2,0,2,1,NAN,60,1,p,138,52,48
3,2,1.0,4.0,0.4886061,0.3981929,2,1,3,1,NAN,50,1,p,139,49,51
3,1,1.0,4.0,0.5706137,0.479122,2,0,1,1,NAN,50,1,p,140,55,45
3,1,NAN,4.0,NAN,1.9506685,2,1,2,1,NAN,70,1,p,141,52,48
3,2,1.0,4.0,0.368607,0.6222667,2,1,2,1,NAN,50,1,p,142,48,52
3,2,NAN,4.0,NAN,0.4167293999999999,2,0,3,1,NAN,70,1,p,143,49,51
3,1,NAN,4.0,NAN,0.9332773,2,1,1,1,NAN,50,1,p,144,55,45
3,2,1.0,4.0,0.3720120999999999,0.3974455999999999,2,1,2,1,NAN,60,1,p,145,48,52
3,2,NAN,4.0,NAN,0.3847910999999999,2,0,3,1,NAN,60,1,p,146,49,51
3,1,NAN,4.0,NAN,0.3353145,2,1,1,1,NAN,60,1,p,147,55,45
3,2,1.0,4.0,0.4224331,0.3142614999999999,2,1,2,1,NAN,70,1,p,148,48,52
3,1,NAN,4.0,NAN,0.3344467,2,1,1,1,NAN,60,1,p,149,55,45
3,1,1.0,4.0,0.7892793,0.6466398,2,0,3,1,NAN,50,1,p,150,51,49
3,1,1.0,4.0,0.8043401,0.4131725999999999,2,0,2,1,NAN,70,1,p,151,52,48
3,1,NAN,4.0,NAN,0.2968801,2,1,2,1,NAN,60,1,p,152,52,48
3,2,1.0,4.0,0.3051365,0.3470289,2,1,1,1,NAN,70,1,p,153,45,55
3,2,1.0,4.0,0.6546754,0.3470385,2,1,3,1,NAN,50,1,p,154,49,51
3,2,1.0,4.0,0.6861046,0.4483555,2,1,2,1,NAN,50,1,p,155,48,52
3,1,NAN,3.0,NAN,0.4177524999999999,2,1,1,1,NAN,60,1,o,156,55,45
3,2,NAN,3.0,NAN,0.4840821,2,0,3,1,NAN,60,1,o,157,49,51
3,2,1.0,4.0,0.612356,0.5644593000000001,2,1,1,1,NAN,50,1,p,158,45,55
3,2,1.0,4.0,0.2363396,0.4971862,2,1,1,1,NAN,50,1,p,159,45,55
3,1,NAN,4.0,NAN,0.6136356,2,1,2,1,NAN,70,1,p,160,52,48
3,1,NAN,4.0,NAN,0.3344702,2,1,1,1,NAN,50,1,p,161,55,45
3,1,1.0,4.0,0.1929914,0.5151247,2,0,3,1,NAN,70,1,p,162,51,49
3,2,NAN,4.0,NAN,1.0508084999999998,2,0,2,1,NAN,50,1,p,163,48,52
3,2,1.0,4.0,0.6366661,0.397593,2,1,1,1,NAN,60,1,p,164,45,55
3,2,NAN,3.0,NAN,1.0341403,2,0,2,1,NAN,60,1,o,165,48,52
3,1,1.0,4.0,0.4022764,0.3301989999999999,2,0,3,1,NAN,50,1,p,166,51,49
3,2,NAN,4.0,NAN,0.5500012,2,0,3,1,NAN,60,1,p,167,49,51
3,2,1.0,4.0,0.8720276,0.4631492999999999,2,1,1,1,NAN,70,1,p,168,45,55
3,2,NAN,4.0,NAN,0.6340349000000001,2,0,3,1,NAN,70,1,p,169,49,51
3,1,NAN,3.0,NAN,0.5481779999999999,2,1,3,1,NAN,70,1,o,170,51,49
3,2,NAN,3.0,NAN,0.3815893,2,0,2,1,NAN,60,1,o,171,48,52
3,1,1.0,3.0,0.4230475999999999,1.6469584,2,0,2,1,NAN,60,1,o,172,52,48
3,1,NAN,4.0,NAN,0.5015065,2,1,3,1,NAN,60,1,p,173,51,49
3,1,NAN,4.0,NAN,0.465894,2,1,1,1,NAN,50,1,p,174,55,45
3,1,NAN,4.0,NAN,0.6172191999999999,2,1,2,1,NAN,50,1,p,175,52,48
3,2,NAN,4.0,NAN,0.3172545,2,0,2,1,NAN,70,1,p,176,48,52
3,1,NAN,4.0,NAN,0.284948,2,1,1,1,NAN,70,1,p,177,55,45
3,2,NAN,4.0,NAN,1.7013106,2,0,3,1,NAN,70,1,p,178,49,51
3,1,NAN,4.0,NAN,0.334568,2,1,1,1,NAN,60,1,p,179,55,45
3,2,1.0,4.0,0.7405613,0.4634107,2,1,2,1,NAN,60,1,p,180,48,52
3,2,1.0,4.0,0.5208712000000001,0.4800867999999999,2,1,2,1,NAN,60,1,p,181,48,52
3,1,NAN,4.0,NAN,0.6169720999999999,2,1,2,1,NAN,60,1,p,182,52,48
3,1,NAN,4.0,NAN,0.3168184,2,1,3,1,NAN,50,1,p,183,51,49
3,2,NAN,3.0,NAN,1.4309134,2,0,3,1,NAN,60,1,o,184,49,51
3,2,1.0,4.0,0.3835114,0.4126492999999999,2,1,1,1,NAN,50,1,p,185,45,55
3,1,1.0,4.0,0.7086061,0.3815819,2,0,3,1,NAN,60,1,p,186,51,49
3,1,NAN,3.0,NAN,0.4508857,2,1,1,1,NAN,60,1,o,187,55,45
3,1,1.0,4.0,0.6564379,0.3473370999999999,2,0,3,1,NAN,70,1,p,188,51,49
3,1,1.0,3.0,0.3883665999999999,1.3131812,2,0,2,1,NAN,70,1,o,189,52,48
3,2,1.0,4.0,0.5848627,0.3467892,2,1,1,1,NAN,70,1,p,190,45,55
3,2,1.0,3.0,0.6207906999999999,1.429699,2,1,3,1,NAN,70,1,o,191,49,51
3,1,NAN,4.0,NAN,0.3656241,2,1,1,1,NAN,60,1,p,192,55,45
3,2,NAN,4.0,NAN,0.7324301,2,0,2,1,NAN,50,1,p,193,48,52
3,2,NAN,4.0,NAN,0.5012333,2,0,1,1,NAN,70,1,p,194,45,55
3,2,1.0,4.0,0.5798033,0.3981764,2,1,1,1,NAN,50,1,p,195,45,55
3,1,NAN,4.0,NAN,0.8650564000000001,2,1,3,1,NAN,70,1,p,196,51,49
3,1,1.0,NAN,0.4646245,1.3967041999999998,2,0,1,1,NAN,70,1,h,197,55,45
3,1,NAN,2.0,NAN,1.7004143,2,1,3,1,NAN,50,1,i,198,51,49
3,2,NAN,4.0,NAN,1.1504114,2,0,2,1,NAN,70,1,p,199,48,52
3,1,NAN,3.0,NAN,0.3999882,2,1,1,1,NAN,50,1,o,200,55,45
3,2,1.0,3.0,0.7698832,0.6982104,2,1,2,1,NAN,50,1,o,201,48,52
3,2,1.0,3.0,0.9556367,1.4815287,2,1,3,1,NAN,60,1,o,202,49,51
3,2,1.0,3.0,0.7740517,0.3648545,2,1,1,1,NAN,60,1,o,203,45,55
3,1,NAN,2.0,NAN,0.9982472,2,1,2,1,NAN,70,1,i,204,52,48
3,2,1.0,3.0,0.8065581999999999,0.4469914000000001,2,1,3,1,NAN,70,1,o,205,49,51
3,1,NAN,2.0,NAN,0.8841266,2,1,1,1,NAN,50,1,i,206,55,45
3,1,NAN,2.0,NAN,0.8480834,2,1,2,1,NAN,50,1,i,207,52,48
3,1,NAN,3.0,NAN,0.7312856,2,1,2,1,NAN,60,1,o,208,52,48
3,2,NAN,2.0,NAN,1.384804,2,0,3,1,NAN,50,1,i,209,49,51
3,1,NAN,3.0,NAN,0.9182683,2,1,3,1,NAN,50,1,o,210,51,49
3,1,NAN,3.0,NAN,0.4341452999999999,2,1,1,1,NAN,60,1,o,211,55,45
3,2,1.0,3.0,0.7367005999999999,0.4473188,2,1,2,1,NAN,60,1,o,212,48,52
3,1,1.0,3.0,0.772195,0.4809366,2,0,3,1,NAN,60,1,o,213,51,49
3,1,NAN,3.0,NAN,0.4007314,2,1,1,1,NAN,50,1,o,214,55,45
3,1,NAN,3.0,NAN,0.3341206,2,1,2,1,NAN,60,1,o,215,52,48
3,1,1.0,3.0,0.5370738,0.3116797999999999,2,0,3,1,NAN,70,1,o,216,51,49
3,2,1.0,3.0,0.7717533000000001,0.381231,2,1,1,1,NAN,70,1,o,217,45,55
3,1,NAN,3.0,NAN,0.5849194999999999,2,1,3,1,NAN,50,1,o,218,51,49
3,1,NAN,3.0,NAN,0.3508952,2,1,1,1,NAN,70,1,o,219,55,45
3,1,1.0,3.0,0.337305,0.3136098,2,0,2,1,NAN,60,1,o,220,52,48
3,2,1.0,3.0,0.7712258000000001,0.3135304,2,1,2,1,NAN,60,1,o,221,48,52
3,2,1.0,3.0,0.3362045,0.2967205,2,1,1,1,NAN,70,1,o,222,45,55
3,2,1.0,3.0,0.7369386,0.2964136,2,1,1,1,NAN,60,1,o,223,45,55
3,2,1.0,3.0,0.6359246000000001,0.2947475999999999,2,1,1,1,NAN,50,1,o,224,45,55
3,2,NAN,3.0,NAN,0.3347839,2,0,3,1,NAN,60,1,o,225,49,51
3,2,1.0,2.0,0.838355,1.097276,2,1,3,1,NAN,60,1,i,226,49,51
3,2,1.0,3.0,0.9358246,0.5477648,2,1,3,1,NAN,50,1,o,227,49,51
3,2,NAN,2.0,NAN,1.6673284,2,0,2,1,NAN,70,1,i,228,48,52
3,2,NAN,2.0,NAN,0.3508484,2,0,1,1,NAN,50,1,i,229,45,55
3,2,NAN,2.0,NAN,0.35089,2,0,2,1,NAN,50,1,i,230,48,52
3,1,NAN,2.0,NAN,0.3335397,2,1,1,1,NAN,50,1,i,231,55,45
3,1,NAN,2.0,NAN,0.31567,2,1,1,1,NAN,60,1,i,232,55,45
3,2,NAN,2.0,NAN,0.9154534,2,0,3,1,NAN,70,1,i,233,49,51
3,1,1.0,2.0,0.9211655,0.6981484,2,0,2,1,NAN,50,1,i,234,52,48
3,1,1.0,2.0,0.6884715,0.6480600999999999,2,0,2,1,NAN,70,1,i,235,52,48
3,1,NAN,2.0,NAN,0.2999885,2,1,2,1,NAN,70,1,i,236,52,48
3,2,1.0,3.0,0.5045010999999999,0.8951078000000001,2,1,3,1,NAN,70,1,o,237,49,51
3,1,NAN,2.0,NAN,0.3316775999999999,2,1,3,1,NAN,70,1,i,238,51,49
3,2,1.0,3.0,0.2222634,0.4470939,2,1,2,1,NAN,50,1,o,239,48,52
3,1,NAN,4.0,NAN,0.916729,2,1,2,1,NAN,60,1,p,240,52,48
3,1,1.0,4.0,0.5715861999999999,0.3644982,2,0,3,1,NAN,50,1,p,241,51,49
3,1,NAN,3.0,NAN,0.3010955999999999,2,1,1,1,NAN,60,1,o,242,55,45
3,2,NAN,3.0,NAN,0.3350023,2,0,3,1,NAN,70,1,o,243,49,51
3,2,1.0,4.0,0.5123429,0.5972525,2,1,3,1,NAN,50,1,p,244,49,51
3,1,NAN,3.0,NAN,0.3171981,2,1,1,1,NAN,50,1,o,245,55,45
3,2,1.0,4.0,0.5362941,0.4643002999999999,2,1,1,1,NAN,70,1,p,246,45,55
3,1,1.0,3.0,0.7364489000000001,0.4624621,2,0,3,1,NAN,70,1,o,247,51,49
3,2,1.0,4.0,0.8037193,0.4300904,2,1,3,1,NAN,60,1,p,248,49,51
3,2,1.0,4.0,0.453628,0.4314335999999999,2,1,1,1,NAN,70,1,p,249,45,55
3,2,NAN,2.0,NAN,1.4172636,2,0,2,1,NAN,70,1,i,250,48,52
3,2,1.0,3.0,0.3832627,0.8307909,2,1,3,1,NAN,70,1,o,251,49,51
3,1,1.0,3.0,0.7202630999999999,0.7131684,2,0,3,1,NAN,50,1,o,252,51,49
3,2,NAN,2.0,NAN,0.4175871,2,0,3,1,NAN,60,1,i,253,49,51
3,2,1.0,3.0,0.8707353000000001,0.4969732,2,1,2,1,NAN,50,1,o,254,48,52
3,1,NAN,2.0,NAN,0.350524,2,1,3,1,NAN,70,1,i,255,51,49
3,1,NAN,2.0,NAN,0.4169933,2,1,2,1,NAN,70,1,i,256,52,48
3,1,NAN,2.0,NAN,0.3487643,2,1,1,1,NAN,50,1,i,257,55,45
3,2,NAN,2.0,NAN,0.4978822,2,0,2,1,NAN,60,1,i,258,48,52
3,2,1.0,3.0,0.622092,0.9314734,2,1,2,1,NAN,60,1,o,259,48,52
3,1,NAN,2.0,NAN,0.3673563,2,1,2,1,NAN,60,1,i,260,52,48
3,2,1.0,3.0,0.4706791,0.4637493,2,1,1,1,NAN,50,1,o,261,45,55
3,1,NAN,2.0,NAN,0.4003572999999999,2,1,3,1,NAN,60,1,i,262,51,49
3,2,1.0,3.0,0.4843488,0.5797829999999999,2,1,1,1,NAN,50,1,o,263,45,55
3,2,1.0,3.0,0.60414,0.4799514,2,1,1,1,NAN,60,1,o,264,45,55
3,1,NAN,2.0,NAN,0.7515265,2,1,1,1,NAN,70,1,i,265,55,45
3,1,1.0,2.0,0.2890021,0.7962821,2,0,2,1,NAN,70,1,i,266,52,48
3,2,1.0,3.0,0.4777885999999999,0.8149387,2,1,2,1,NAN,50,1,o,267,48,52
3,1,NAN,2.0,NAN,0.2842859,2,1,2,1,NAN,50,1,i,268,52,48
3,1,NAN,2.0,NAN,0.3327934,2,1,1,1,NAN,60,1,i,269,55,45
3,1,1.0,3.0,0.6524536,0.4964304,2,0,3,1,NAN,70,1,o,270,51,49
3,1,NAN,3.0,NAN,0.3819119,2,1,2,1,NAN,60,1,o,271,52,48
3,2,1.0,3.0,0.2687042,0.4298997,2,1,1,1,NAN,50,1,o,272,45,55
3,2,1.0,3.0,0.4399376,0.3315965,2,1,1,1,NAN,50,1,o,273,45,55
3,2,1.0,3.0,0.3221759,0.364703,2,1,3,1,NAN,70,1,o,274,49,51
3,1,NAN,2.0,NAN,0.2983774,2,1,3,1,NAN,70,1,i,275,51,49
3,1,NAN,2.0,NAN,0.3011479,2,1,2,1,NAN,70,1,i,276,52,48
3,2,1.0,3.0,0.6032655,0.380976,2,1,1,1,NAN,70,1,o,277,45,55
3,1,1.0,3.0,0.5537432,0.647099,2,0,3,1,NAN,50,1,o,278,51,49
3,1,NAN,2.0,NAN,0.3840008,2,1,1,1,NAN,50,1,i,279,55,45
3,2,1.0,3.0,0.7241820999999999,0.3799964,2,1,3,1,NAN,70,1,o,280,49,51
3,2,NAN,3.0,NAN,0.2848571,2,0,3,1,NAN,60,1,o,281,49,51
3,2,1.0,3.0,0.3890886,0.4793969,2,1,3,1,NAN,60,1,o,282,49,51
3,2,NAN,3.0,NAN,1.3516548000000002,2,0,2,1,NAN,50,1,o,283,48,52
3,2,1.0,3.0,0.6535449999999999,0.6297301,2,1,2,1,NAN,50,1,o,285,48,52
3,1,NAN,2.0,NAN,0.4827442,2,1,1,1,NAN,70,1,i,286,55,45
3,2,1.0,3.0,0.6538988,1.0467068000000002,2,1,2,1,NAN,70,1,o,287,48,52
3,1,NAN,3.0,NAN,0.414998,2,1,2,1,NAN,70,1,o,288,52,48
3,2,1.0,3.0,0.7050378,0.3136163,2,1,1,1,NAN,70,1,o,289,45,55
3,1,NAN,3.0,NAN,0.3850739,2,1,2,1,NAN,50,1,o,290,52,48
3,1,NAN,3.0,NAN,0.9645461,2,1,3,1,NAN,50,1,o,291,51,49
3,1,1.0,2.0,0.4049561,1.1629955,2,0,1,1,NAN,50,1,i,292,55,45
3,1,1.0,3.0,0.7882,0.5807519,2,0,3,1,NAN,60,1,o,293,51,49
3,1,NAN,2.0,NAN,0.3822537,2,1,2,1,NAN,60,1,i,294,52,48
3,1,NAN,2.0,NAN,0.3504619,2,1,1,1,NAN,60,1,i,295,55,45
3,1,NAN,2.0,NAN,1.0838668,2,1,1,1,NAN,60,1,i,296,55,45
3,2,1.0,3.0,0.8676065999999999,0.5315428000000001,2,1,2,1,NAN,60,1,o,297,48,52
3,2,NAN,3.0,NAN,0.5348483,2,0,3,1,NAN,50,1,o,298,49,51
3,2,1.0,3.0,0.5707109,0.4123405,2,1,1,1,NAN,60,1,o,299,45,55
3,1,NAN,3.0,NAN,0.8672113000000001,2,1,1,1,NAN,50,1,o,300,55,45
3,1,1.0,2.0,0.5090352,0.946036,2,0,2,1,NAN,70,1,i,301,52,48
3,2,NAN,2.0,NAN,1.0665285,2,0,2,1,NAN,50,1,i,302,48,52
3,1,1.0,1.0,0.5179029,1.4462592,2,0,1,1,NAN,70,1,u,303,55,45
3,1,1.0,2.0,0.7235574,0.6107876999999999,2,0,2,1,NAN,70,1,i,304,52,48
3,1,1.0,2.0,0.7249214,0.8979379000000001,2,0,3,1,NAN,70,1,i,305,51,49
3,1,NAN,2.0,NAN,1.017395,2,1,2,1,NAN,50,1,i,306,52,48
3,1,NAN,2.0,NAN,0.4182382,2,1,1,1,NAN,60,1,i,307,55,45
3,2,1.0,2.0,0.4539013,0.3626561,2,1,1,1,NAN,60,1,i,308,45,55
3,1,NAN,2.0,NAN,0.3341066,2,1,3,1,NAN,60,1,i,309,51,49
3,1,NAN,2.0,NAN,0.4145697,2,1,1,1,NAN,60,1,i,310,55,45
3,1,NAN,2.0,NAN,0.6474684,2,1,3,1,NAN,50,1,i,311,51,49
3,1,NAN,2.0,NAN,0.9166711,2,1,3,1,NAN,70,1,i,312,51,49
3,1,NAN,2.0,NAN,0.3848173,2,1,1,1,NAN,50,1,i,313,55,45
3,1,1.0,2.0,0.4157063,1.1141937,2,0,3,1,NAN,50,1,i,314,51,49
3,2,1.0,2.0,0.6425949000000001,0.4813654,2,1,3,1,NAN,70,1,i,315,49,51
3,2,1.0,2.0,0.5210375,0.3637099,2,1,2,1,NAN,60,1,i,316,48,52
3,2,1.0,2.0,0.3344018,0.4137367999999999,2,1,1,1,NAN,50,1,i,317,45,55
3,2,1.0,2.0,0.3723209,0.3299712999999999,2,1,1,1,NAN,50,1,i,318,45,55
3,2,1.0,2.0,0.5204165,0.3965124,2,1,2,1,NAN,50,1,i,319,48,52
3,2,1.0,2.0,0.3543337,0.3461139,2,1,2,1,NAN,60,1,i,320,48,52
3,2,1.0,2.0,0.4861900999999999,0.3177993,2,1,3,1,NAN,50,1,i,321,49,51
3,2,1.0,2.0,0.3553389999999999,0.4645388,2,1,3,1,NAN,60,1,i,322,49,51
3,2,1.0,2.0,0.341611,0.4315635,2,1,3,1,NAN,70,1,i,323,49,51
3,1,1.0,1.0,0.4537172,1.794791,2,0,2,1,NAN,60,1,u,324,52,48
3,1,NAN,1.0,NAN,0.6973871,2,1,2,1,NAN,60,1,u,325,52,48
3,2,1.0,2.0,0.6009071,0.361642,2,1,2,1,NAN,70,1,i,326,48,52
3,2,1.0,2.0,0.4701885,0.313246,2,1,1,1,NAN,70,1,i,327,45,55
3,2,NAN,2.0,NAN,0.7815138,2,0,3,1,NAN,60,1,i,328,49,51
3,2,1.0,2.0,0.620531,0.4812889,2,1,1,1,NAN,70,1,i,329,45,55
3,1,NAN,2.0,NAN,0.8342424,2,1,2,1,NAN,50,1,i,330,52,48
3,1,1.0,2.0,0.6406969,0.3648898,2,0,3,1,NAN,50,1,i,331,51,49
3,2,1.0,2.0,0.2720318,0.3630854,2,1,3,1,NAN,60,1,i,332,49,51
3,2,1.0,2.0,0.5524209,0.3976930999999999,2,1,2,1,NAN,60,1,i,333,48,52
3,2,1.0,3.0,0.4916345,0.9803618,2,1,3,1,NAN,70,1,o,334,49,51
3,1,1.0,3.0,0.3710035999999999,0.2969522999999999,2,0,2,1,NAN,70,1,o,335,52,48
3,1,NAN,3.0,NAN,0.3137547,2,1,3,1,NAN,70,1,o,336,51,49
3,2,1.0,3.0,0.3549834,0.2567574999999999,2,1,2,1,NAN,50,1,o,337,48,52
3,1,1.0,3.0,0.4174639,0.2637552999999999,2,0,3,1,NAN,60,1,o,338,51,49
3,2,1.0,3.0,0.4363564,0.2645672999999999,2,1,3,1,NAN,50,1,o,339,49,51
3,1,NAN,3.0,NAN,0.3839276,2,1,2,1,NAN,60,1,o,340,52,48
3,2,1.0,3.0,0.6542306999999999,0.2635928,2,1,1,1,NAN,50,1,o,341,45,55
3,1,NAN,3.0,NAN,0.2984733,2,1,1,1,NAN,70,1,o,342,55,45
3,1,NAN,3.0,NAN,0.3147185999999999,2,1,3,1,NAN,50,1,o,343,51,49
3,2,1.0,3.0,0.5956423000000001,0.2607103,2,1,1,1,NAN,60,1,o,344,45,55
3,2,1.0,3.0,0.4670730999999999,0.4978528,2,1,2,1,NAN,70,1,o,345,48,52
3,1,NAN,3.0,NAN,0.7998356,2,1,2,1,NAN,60,1,o,346,52,48
3,2,1.0,4.0,0.6510004,0.2815203,2,1,2,1,NAN,60,1,p,347,48,52
3,2,1.0,4.0,0.4093478,0.3304702,2,1,1,1,NAN,70,1,p,348,45,55
3,1,NAN,4.0,NAN,0.5506729,2,1,1,1,NAN,50,1,p,349,55,45
3,2,1.0,4.0,0.3378294,0.2803294,2,1,3,1,NAN,60,1,p,350,49,51
3,2,1.0,4.0,0.4870157999999999,0.2967325999999999,2,1,2,1,NAN,50,1,p,351,48,52
3,1,1.0,4.0,0.5841052,0.2791007,2,0,3,1,NAN,70,1,p,352,51,49
3,1,1.0,4.0,0.2861327,0.5644446999999999,2,0,1,1,NAN,50,1,p,353,55,45
3,1,1.0,4.0,0.5228152,0.2479341,2,0,2,1,NAN,70,1,p,354,52,48
3,1,NAN,4.0,NAN,0.2514799,2,1,1,1,NAN,60,1,p,355,55,45
3,2,1.0,4.0,0.3702824,0.2455546,2,1,1,1,NAN,50,1,p,356,45,55
3,1,NAN,4.0,NAN,0.1304947,2,1,1,1,NAN,60,1,p,357,55,45
3,2,1.0,4.0,0.4677028,0.1970224,2,1,3,1,NAN,70,1,p,358,49,51
3,2,1.0,4.0,0.3063861,0.3296875,2,1,1,1,NAN,70,1,p,359,45,55
3,2,1.0,4.0,0.7366096999999999,0.4636491,2,1,2,1,NAN,60,1,p,360,48,52
3,2,1.0,4.0,0.5386819,0.2643382999999999,2,1,3,1,NAN,70,1,p,361,49,51
3,1,1.0,4.0,0.5205241,0.3483232999999999,2,0,2,1,NAN,70,1,p,362,52,48
3,2,1.0,4.0,0.6569891999999999,0.2482117999999999,2,1,3,1,NAN,60,1,p,363,49,51
3,2,NAN,3.0,NAN,0.7507047,2,0,2,1,NAN,60,1,o,364,48,52
3,2,1.0,4.0,0.372075,0.2959124,2,1,3,1,NAN,70,1,p,365,49,51
3,2,NAN,3.0,NAN,0.3498921,2,0,1,1,NAN,50,1,o,366,45,55
3,2,1.0,4.0,0.5577263000000001,0.2962529,2,1,1,1,NAN,60,1,p,367,45,55
3,2,1.0,3.0,0.5545739000000001,1.1965708000000002,2,1,1,1,NAN,70,1,o,368,45,55
3,1,NAN,4.0,NAN,0.1180323,2,1,2,1,NAN,60,1,p,369,52,48
3,1,NAN,3.0,NAN,0.7842848000000001,2,1,3,1,NAN,70,1,o,370,51,49
3,2,1.0,4.0,0.3375293,0.2973485999999999,2,1,2,1,NAN,50,1,p,371,48,52
3,2,NAN,4.0,NAN,1.2639267,2,0,1,1,NAN,70,1,p,372,45,55
3,1,NAN,4.0,NAN,0.3633248,2,1,3,1,NAN,50,1,p,373,51,49
3,1,NAN,4.0,NAN,0.3660680999999999,2,1,2,1,NAN,50,1,p,374,52,48
3,1,NAN,4.0,NAN,0.3332312,2,1,1,1,NAN,60,1,p,375,55,45
3,1,NAN,4.0,NAN,0.5481034,2,1,1,1,NAN,50,1,p,376,55,45
3,1,1.0,4.0,0.5390630999999999,0.3649197999999999,2,0,2,1,NAN,60,1,p,377,52,48
3,1,1.0,4.0,0.9052321,0.4647707,2,0,3,1,NAN,70,1,p,378,51,49
3,1,NAN,4.0,NAN,0.350194,2,1,1,1,NAN,50,1,p,379,55,45
3,1,1.0,3.0,0.7371135,1.0781889999999998,2,0,1,1,NAN,70,1,o,380,55,45
3,1,NAN,4.0,NAN,0.3837814,2,1,1,1,NAN,60,1,p,381,55,45
3,2,1.0,4.0,0.5204953,0.2462427999999999,2,1,3,1,NAN,50,1,p,382,49,51
3,2,1.0,4.0,0.5687995,0.2794529,2,1,3,1,NAN,60,1,p,383,49,51
3,2,1.0,4.0,0.2816618,0.3634522999999999,2,1,2,1,NAN,50,1,p,384,48,52
3,1,NAN,3.0,NAN,1.2511994,2,1,3,1,NAN,60,1,o,385,51,49
3,1,NAN,3.0,NAN,0.4676477,2,1,2,1,NAN,70,1,o,386,52,48
3,2,1.0,4.0,0.5541595,0.3125532,2,1,1,1,NAN,50,1,p,387,45,55
3,1,1.0,3.0,0.5706489,0.4634359999999999,2,0,3,1,NAN,50,1,o,388,51,49
3,2,1.0,3.0,0.5045527,0.6132333999999999,2,1,2,1,NAN,70,1,o,389,48,52
4,2,1.0,4.0,0.4614947,0.3304494,2,1,1,1,19.0,50,1,p,0,45,55
4,2,1.0,4.0,0.7680256,0.3282335,2,1,3,1,19.0,60,1,p,1,49,51
4,1,NAN,4.0,NAN,0.3510984,2,1,2,1,19.0,70,1,p,2,52,48
4,1,NAN,4.0,NAN,0.3339663,2,1,1,1,19.0,50,1,p,3,55,45
4,2,1.0,4.0,0.5216221999999999,0.3294156,2,1,1,1,19.0,60,1,p,4,45,55
4,1,1.0,4.0,0.5351024999999999,0.363023,2,0,2,1,19.0,70,1,p,5,52,48
4,1,1.0,4.0,0.5211604999999999,0.5288556999999999,2,0,3,1,19.0,60,1,p,6,51,49
4,2,1.0,4.0,0.5374781,0.3294037,2,1,1,1,19.0,50,1,p,7,45,55
4,1,NAN,4.0,NAN,0.3510603,2,1,1,1,19.0,70,1,p,8,55,45
4,2,1.0,4.0,0.7379095,0.3120058,2,1,3,1,19.0,50,1,p,9,49,51
4,1,NAN,4.0,NAN,0.3494562,2,1,3,1,19.0,70,1,p,10,51,49
4,2,1.0,4.0,0.7520991,0.296382,2,1,2,1,19.0,50,1,p,11,48,52
4,1,1.0,4.0,0.6179314,0.4295741,2,0,1,1,19.0,50,1,p,12,55,45
4,1,NAN,4.0,NAN,0.3651125,2,1,1,1,19.0,60,1,p,13,55,45
4,1,1.0,4.0,0.767947,0.2960900999999999,2,0,3,1,19.0,50,1,p,14,51,49
4,2,1.0,4.0,0.7532687,0.295827,2,1,3,1,19.0,70,1,p,15,49,51
4,1,NAN,3.0,NAN,0.8846901,2,1,3,1,19.0,50,1,o,16,51,49
4,2,1.0,4.0,0.5873299,0.5121797,2,1,3,1,19.0,60,1,p,17,49,51
4,2,1.0,4.0,0.7707911,0.2615114,2,1,2,1,19.0,60,1,p,18,48,52
4,2,1.0,4.0,0.7541007,0.2634980999999999,2,1,2,1,19.0,60,1,p,19,48,52
4,2,NAN,4.0,NAN,0.0314747,2,0,1,1,19.0,70,1,p,20,45,55
4,2,1.0,4.0,0.801901,0.529371,2,1,2,1,19.0,70,1,p,21,48,52
4,1,NAN,4.0,NAN,0.3487477,2,1,2,1,19.0,50,1,p,22,52,48
4,1,NAN,4.0,NAN,0.3314856,2,1,2,1,19.0,60,1,p,23,52,48
4,2,1.0,4.0,0.7370494000000001,0.3630424,2,1,2,1,19.0,50,1,p,24,48,52
4,2,NAN,4.0,NAN,0.7813254,2,0,1,1,19.0,70,1,p,25,45,55
4,1,NAN,4.0,NAN,0.3982905,2,1,2,1,19.0,60,1,p,26,52,48
4,1,NAN,4.0,NAN,0.4844719,2,1,3,1,19.0,70,1,p,27,51,49
4,1,NAN,4.0,NAN,0.3336538,2,1,1,1,19.0,60,1,p,28,55,45
4,2,1.0,4.0,0.5043082,0.3454524,2,1,3,1,19.0,70,1,p,29,49,51
4,2,1.0,4.0,0.6007733000000001,0.494295,2,1,3,1,19.0,50,1,p,30,49,51
4,1,NAN,4.0,NAN,0.3654669,2,1,2,1,19.0,60,1,p,31,52,48
4,2,1.0,NAN,0.3062385999999999,1.4641692,2,1,2,1,19.0,60,1,h,32,48,52
4,1,NAN,4.0,NAN,0.350572,2,1,1,1,19.0,50,1,p,33,55,45
4,1,NAN,4.0,NAN,0.6495276,2,1,2,1,19.0,60,1,p,35,52,48
4,2,1.0,4.0,0.47043,0.3456818,2,1,1,1,19.0,50,1,p,36,45,55
4,2,1.0,4.0,0.4867354999999999,0.3620349,2,1,2,1,19.0,70,1,p,37,48,52
4,2,1.0,4.0,0.668998,0.2943634,2,1,1,1,19.0,70,1,p,38,45,55
4,2,NAN,4.0,NAN,0.4148501,2,0,3,1,19.0,70,1,p,39,49,51
4,1,1.0,4.0,0.568818,0.3475948,2,0,3,1,19.0,50,1,p,40,51,49
4,2,1.0,4.0,0.9383296,0.2809145,2,1,3,1,19.0,60,1,p,41,49,51
4,2,1.0,4.0,0.8858959999999999,0.2480984,2,1,2,1,19.0,50,1,p,42,48,52
4,1,NAN,4.0,NAN,0.3505140999999999,2,1,3,1,19.0,70,1,p,43,51,49
4,1,NAN,NAN,NAN,1.3662178,2,1,2,1,19.0,50,1,h,44,52,48
4,1,NAN,3.0,NAN,1.2002651000000002,2,1,3,1,19.0,70,1,o,45,51,49
4,1,NAN,4.0,NAN,0.3999117,2,1,2,1,19.0,70,1,p,46,52,48
4,1,NAN,3.0,NAN,1.8152622,2,1,2,1,19.0,70,1,o,47,52,48
4,2,1.0,4.0,0.5870017,0.9619094,2,1,2,1,19.0,50,1,p,48,48,52
4,1,1.0,4.0,0.703941,0.3455382999999999,2,0,3,1,19.0,50,1,p,49,51,49
4,1,NAN,4.0,NAN,0.2679077,2,1,1,1,19.0,70,1,p,50,55,45
4,1,1.0,4.0,0.6871079000000001,0.8458844000000001,2,0,1,1,19.0,60,1,p,51,55,45
4,1,NAN,4.0,NAN,0.4481404,2,1,1,1,19.0,50,1,p,52,55,45
4,1,1.0,4.0,0.7186433000000001,0.3457425,2,0,3,1,19.0,60,1,p,53,51,49
4,2,1.0,4.0,0.6869653,0.3128152999999999,2,1,1,1,19.0,50,1,p,54,45,55
4,2,NAN,4.0,NAN,0.9314155,2,0,1,1,19.0,70,1,p,55,45,55
4,2,1.0,4.0,0.8547712,0.2812442,2,1,3,1,19.0,70,1,p,56,49,51
4,1,NAN,4.0,NAN,0.3014908,2,1,1,1,19.0,60,1,p,57,55,45
4,2,1.0,4.0,0.7105168000000001,0.2454746,2,1,1,1,19.0,60,1,p,58,45,55
4,2,1.0,4.0,0.5886726,0.3301473,2,1,3,1,19.0,60,1,p,59,49,51
4,2,NAN,4.0,NAN,0.6818208,2,0,3,1,19.0,60,1,p,60,49,51
4,2,1.0,4.0,0.5160542,0.2948261,2,1,2,1,19.0,60,1,p,61,48,52
4,1,NAN,4.0,NAN,0.3152467,2,1,1,1,19.0,50,1,p,62,55,45
4,1,1.0,NAN,0.4982746,1.5290186,2,0,1,1,19.0,60,1,h,63,55,45
4,2,NAN,4.0,NAN,0.6151693,2,0,2,1,19.0,50,1,p,64,48,52
4,1,NAN,4.0,NAN,0.4485055999999999,2,1,3,1,19.0,70,1,p,65,51,49
4,2,1.0,4.0,0.6698083,0.3182061,2,1,3,1,19.0,60,1,p,66,49,51
4,1,1.0,4.0,0.9373905,0.2472459,2,0,2,1,19.0,60,1,p,67,52,48
4,1,NAN,4.0,NAN,0.4662685,2,1,3,1,19.0,50,1,p,68,51,49
4,2,NAN,4.0,NAN,1.7480913,2,0,1,1,19.0,60,1,p,69,45,55
4,1,NAN,3.0,NAN,1.1985538,2,1,2,1,19.0,70,1,o,70,52,48
4,2,NAN,3.0,NAN,0.4988069,2,0,3,1,19.0,70,1,o,71,49,51
4,1,NAN,3.0,NAN,0.3646289,2,1,3,1,19.0,70,1,o,72,51,49
4,1,NAN,3.0,NAN,0.781536,2,1,3,1,19.0,50,1,o,73,51,49
4,1,NAN,4.0,NAN,0.4487122,2,1,2,1,19.0,70,1,p,74,52,48
4,1,NAN,4.0,NAN,0.7489741999999999,2,1,1,1,19.0,60,1,p,75,55,45
4,1,NAN,4.0,NAN,0.4476564,2,1,2,1,19.0,50,1,p,76,52,48
4,1,NAN,4.0,NAN,0.3145686,2,1,1,1,19.0,50,1,p,77,55,45
4,1,NAN,4.0,NAN,0.5293931,2,1,3,1,19.0,60,1,p,78,51,49
4,2,NAN,4.0,NAN,0.2318872,2,0,2,1,19.0,70,1,p,79,48,52
4,2,1.0,4.0,0.750811,0.2648751,2,1,1,1,19.0,70,1,p,80,45,55
4,2,NAN,4.0,NAN,0.318641,2,0,3,1,19.0,70,1,p,81,49,51
4,2,1.0,4.0,0.9389467,0.264728,2,1,2,1,19.0,50,1,p,82,48,52
4,1,NAN,4.0,NAN,0.3143954,2,1,1,1,19.0,70,1,p,83,55,45
4,1,NAN,4.0,NAN,0.9168136999999998,2,1,2,1,19.0,60,1,p,84,52,48
4,2,1.0,4.0,0.7984207,0.7462028,2,1,1,1,19.0,70,1,p,85,45,55
4,2,1.0,4.0,0.9377462,0.2787944,2,1,3,1,19.0,50,1,p,86,49,51
4,2,1.0,4.0,0.601773,0.2913277,2,1,2,1,19.0,60,1,p,87,48,52
4,2,1.0,4.0,0.5712388,0.264637,2,1,1,1,19.0,50,1,p,88,45,55
4,2,1.0,4.0,0.5329286999999999,0.2630186,2,1,1,1,19.0,50,1,p,89,45,55
4,1,NAN,4.0,NAN,0.5651010000000001,2,1,3,1,19.0,70,1,p,90,51,49
4,2,1.0,4.0,0.6693266,0.2954454,2,1,1,1,19.0,50,1,p,91,45,55
4,1,NAN,4.0,NAN,0.3167319,2,1,1,1,19.0,50,1,p,92,55,45
4,2,1.0,4.0,0.6697286,0.2608998,2,1,2,1,19.0,60,1,p,93,48,52
4,2,1.0,4.0,0.6369871,0.3296094,2,1,1,1,19.0,70,1,p,94,45,55
4,2,1.0,4.0,0.5044319,0.3629584,2,1,3,1,19.0,60,1,p,95,49,51
4,1,NAN,4.0,NAN,0.4166822,2,1,3,1,19.0,70,1,p,96,51,49
4,1,NAN,4.0,NAN,0.3345598,2,1,3,1,19.0,60,1,p,97,51,49
4,2,1.0,4.0,0.5382618,0.313794,2,1,1,1,19.0,50,1,p,98,45,55
4,2,NAN,3.0,NAN,0.7663813,2,0,2,1,19.0,60,1,o,99,48,52
4,2,1.0,4.0,0.9309799,0.3134073,2,1,2,1,19.0,70,1,p,100,48,52
4,2,NAN,2.0,NAN,0.7811345000000001,2,0,2,1,19.0,50,1,i,101,48,52
4,2,1.0,4.0,0.920004,0.4290390999999999,2,1,2,1,19.0,50,1,p,102,48,52
4,1,1.0,NAN,0.620482,1.3779674,2,0,1,1,19.0,70,1,h,103,55,45
4,1,NAN,4.0,NAN,1.0173973,2,1,1,1,19.0,60,1,p,104,55,45
4,2,1.0,4.0,0.5700907,0.3634139,2,1,1,1,19.0,60,1,p,105,45,55
4,1,1.0,4.0,0.5526955,0.2978196,2,0,2,1,19.0,70,1,p,106,52,48
4,1,NAN,3.0,NAN,0.6670495,2,1,3,1,19.0,50,1,o,107,51,49
4,2,NAN,4.0,NAN,0.3663784,2,0,1,1,19.0,70,1,p,108,45,55
4,2,1.0,4.0,0.6215658000000001,0.2977139,2,1,3,1,19.0,60,1,p,109,49,51
4,1,NAN,2.0,NAN,0.7624298,2,1,1,1,19.0,60,1,i,110,55,45
4,1,NAN,4.0,NAN,0.8636161,2,1,2,1,19.0,50,1,p,111,52,48
4,2,1.0,4.0,0.6053571,0.2812986,2,1,3,1,19.0,70,1,p,112,49,51
4,1,NAN,4.0,NAN,1.4507495,2,1,2,1,19.0,70,1,p,113,52,48
4,1,NAN,4.0,NAN,0.9481129,2,1,2,1,19.0,60,1,p,114,52,48
4,1,NAN,4.0,NAN,0.4316352,2,1,2,1,19.0,60,1,p,116,52,48
4,1,NAN,4.0,NAN,0.3481192,2,1,1,1,19.0,50,1,p,117,55,45
4,2,NAN,3.0,NAN,0.7483359,2,0,3,1,19.0,70,1,o,118,49,51
4,2,1.0,4.0,0.6368229000000001,0.2461677,2,1,3,1,19.0,50,1,p,119,49,51
4,2,1.0,3.0,0.7707151,0.3147110999999999,2,1,1,1,19.0,70,1,o,120,45,55
4,1,1.0,4.0,0.854726,0.2979927,2,0,1,1,19.0,60,1,p,121,55,45
4,2,1.0,4.0,0.5380909,0.3476059999999999,2,1,2,1,19.0,50,1,p,122,48,52
4,1,NAN,4.0,NAN,0.315386,2,1,1,1,19.0,50,1,p,123,55,45
4,2,1.0,4.0,0.3047599,0.2787205,2,1,2,1,19.0,60,1,p,124,48,52
4,1,NAN,3.0,NAN,0.3312722,2,1,3,1,19.0,50,1,o,125,51,49
4,1,1.0,4.0,0.6523013000000001,0.321964,2,0,3,1,19.0,70,1,p,126,51,49
4,2,1.0,4.0,0.7035892,0.3451285,2,1,2,1,19.0,70,1,p,127,48,52
4,1,NAN,4.0,NAN,0.334547,2,1,2,1,19.0,60,1,p,128,52,48
4,1,1.0,NAN,0.7702378000000001,1.6296979,2,0,3,1,19.0,50,1,h,129,51,49
4,1,NAN,4.0,NAN,0.3811936999999999,2,1,1,1,19.0,60,1,p,130,55,45
4,2,NAN,4.0,NAN,0.1997618,2,0,3,1,19.0,50,1,p,131,49,51
4,1,NAN,3.0,NAN,0.6501374,2,1,2,1,19.0,70,1,o,132,52,48
4,2,NAN,3.0,NAN,0.6480175,2,0,2,1,19.0,60,1,o,133,48,52
4,2,1.0,4.0,0.7009158000000001,0.2793589,2,1,1,1,19.0,50,1,p,134,45,55
4,2,NAN,3.0,NAN,0.3480824,2,0,3,1,19.0,60,1,o,135,49,51
4,2,1.0,4.0,0.5547152,0.3310422,2,1,3,1,19.0,70,1,p,136,49,51
4,1,1.0,4.0,0.6259108,0.3643533,2,0,3,1,19.0,70,1,p,137,51,49
4,1,NAN,4.0,NAN,0.3312966,2,1,1,1,19.0,70,1,p,138,55,45
4,2,1.0,4.0,0.6368814,0.2797133,2,1,2,1,19.0,50,1,p,139,48,52
4,1,NAN,3.0,NAN,0.3481086,2,1,2,1,19.0,50,1,o,140,52,48
4,2,1.0,4.0,0.5195837999999999,0.2462203,2,1,1,1,19.0,60,1,p,141,45,55
4,1,NAN,4.0,NAN,0.4481513,2,1,2,1,19.0,70,1,p,142,52,48
4,2,NAN,4.0,NAN,0.6984548,2,0,1,1,19.0,70,1,p,143,45,55
4,1,NAN,4.0,NAN,0.5017971,2,1,1,1,19.0,50,1,p,144,55,45
4,1,NAN,4.0,NAN,0.7012345999999999,2,1,3,1,19.0,60,1,p,145,51,49
4,2,1.0,4.0,0.9218368,0.3462668,2,1,3,1,19.0,70,1,p,146,49,51
4,2,1.0,4.0,0.5032332,0.2784937,2,1,1,1,19.0,50,1,p,147,45,55
4,1,NAN,4.0,NAN,0.2987235,2,1,2,1,19.0,60,1,p,148,52,48
4,2,1.0,4.0,0.5544398,0.2449445,2,1,3,1,19.0,60,1,p,149,49,51
4,2,1.0,4.0,0.948382,0.3627102,2,1,3,1,19.0,60,1,p,150,49,51
4,2,1.0,4.0,0.7378284,0.330353,2,1,1,1,19.0,70,1,p,153,45,55
4,1,NAN,4.0,NAN,0.8007595999999999,2,1,3,1,19.0,60,1,p,154,51,49
4,1,1.0,4.0,0.7373403000000001,0.2966504,2,0,2,1,19.0,70,1,p,155,52,48
4,1,NAN,4.0,NAN,0.3475317,2,1,1,1,19.0,60,1,p,156,55,45
4,2,1.0,4.0,0.6815029,0.378471,2,1,3,1,19.0,60,1,p,157,49,51
4,2,1.0,4.0,0.6678904999999999,0.2959263,2,1,1,1,19.0,50,1,p,158,45,55
4,2,1.0,4.0,0.8975399,0.2795708,2,1,2,1,19.0,50,1,p,159,48,52
4,2,1.0,4.0,0.9025543,0.2639559999999999,2,1,2,1,19.0,60,1,p,160,48,52
4,2,NAN,4.0,NAN,0.4177377,2,0,3,1,19.0,50,1,p,161,49,51
4,1,NAN,4.0,NAN,0.316208,2,1,2,1,19.0,60,1,p,162,52,48
4,2,NAN,4.0,NAN,0.499722,2,0,1,1,19.0,70,1,p,163,45,55
4,2,1.0,4.0,0.5861998,0.4456662999999999,2,1,2,1,19.0,60,1,p,164,48,52
4,2,NAN,4.0,NAN,0.2642366,2,0,2,1,19.0,70,1,p,165,48,52
4,2,NAN,4.0,NAN,0.1481422999999999,2,0,3,1,19.0,70,1,p,166,49,51
4,2,1.0,4.0,0.5871911,0.2295424,2,1,1,1,19.0,50,1,p,167,45,55
4,2,1.0,4.0,0.7217642,0.3301995,2,1,1,1,19.0,60,1,p,168,45,55
4,1,1.0,4.0,0.3862184,0.5306709,2,0,2,1,19.0,60,1,p,169,52,48
4,1,1.0,4.0,0.4704706,0.2947599999999999,2,0,3,1,19.0,50,1,p,170,51,49
4,1,NAN,4.0,NAN,0.3509974,2,1,1,1,19.0,50,1,p,171,55,45
4,1,NAN,4.0,NAN,0.2638289,2,1,3,1,19.0,50,1,p,172,51,49
4,2,1.0,4.0,0.6701092,0.2789468,2,1,2,1,19.0,50,1,p,173,48,52
4,1,1.0,NAN,0.5710691999999999,1.1133438999999998,2,0,2,1,19.0,50,1,h,174,52,48
4,1,NAN,4.0,NAN,0.3649741,2,1,1,1,19.0,70,1,p,175,55,45
4,1,1.0,4.0,0.6807599,0.5144742999999999,2,0,3,1,19.0,70,1,p,176,51,49
4,2,NAN,3.0,NAN,0.9186335,2,0,3,1,19.0,70,1,o,177,49,51
4,1,1.0,NAN,0.5384125,1.2635485,2,0,1,1,19.0,60,1,h,178,55,45
4,1,NAN,4.0,NAN,0.8172164000000001,2,1,2,1,19.0,70,1,p,179,52,48
4,1,NAN,4.0,NAN,0.3334495,2,1,1,1,19.0,50,1,p,180,55,45
4,2,1.0,4.0,0.7212906,0.2121427,2,1,3,1,19.0,70,1,p,181,49,51
4,2,1.0,4.0,0.6666425,0.3799609,2,1,1,1,19.0,70,1,p,182,45,55
4,1,NAN,4.0,NAN,0.0483704,2,1,3,1,19.0,70,1,p,183,51,49
4,2,1.0,4.0,0.6353818,0.3788874,2,1,1,1,19.0,60,1,p,184,45,55
4,1,NAN,4.0,NAN,0.3349641,2,1,1,1,19.0,60,1,p,185,55,45
4,2,1.0,4.0,0.905811,0.4645537,2,1,2,1,19.0,50,1,p,186,48,52
4,2,1.0,4.0,0.7067119000000001,0.2631410999999999,2,1,3,1,19.0,70,1,p,187,49,51
4,1,1.0,4.0,0.7158161,0.3475689,2,0,3,1,19.0,70,1,p,188,51,49
4,1,1.0,4.0,0.5370793,0.2630069,2,0,3,1,19.0,50,1,p,189,51,49
4,1,1.0,4.0,0.3870514,0.2623150999999999,2,0,3,1,19.0,50,1,p,190,51,49
4,2,1.0,4.0,0.4694411,0.227201,2,1,2,1,19.0,60,1,p,191,48,52
4,1,NAN,4.0,NAN,0.7505824000000001,2,1,2,1,19.0,70,1,p,192,52,48
4,2,1.0,4.0,0.8379837,0.214609,2,1,3,1,19.0,50,1,p,193,49,51
4,2,NAN,4.0,NAN,0.4314423,2,0,3,1,19.0,60,1,p,194,49,51
4,2,1.0,4.0,0.5637929,0.2633281,2,1,1,1,19.0,70,1,p,195,45,55
4,1,NAN,4.0,NAN,0.3668897,2,1,1,1,19.0,50,1,p,196,55,45
4,1,1.0,4.0,0.6538102,0.2464041,2,0,2,1,19.0,50,1,p,197,52,48
4,2,1.0,4.0,0.6184123,0.3625767,2,1,2,1,19.0,60,1,p,198,48,52
4,1,NAN,4.0,NAN,0.2797155,2,1,1,1,19.0,60,1,p,199,55,45
4,2,1.0,4.0,0.6881136,0.2011555,2,1,2,1,19.0,50,1,p,200,48,52
4,1,NAN,4.0,NAN,0.3177924,2,1,2,1,19.0,70,1,p,201,52,48
4,1,NAN,4.0,NAN,0.3983973,2,1,2,1,19.0,60,1,p,202,52,48
4,2,NAN,4.0,NAN,0.2656779,2,0,3,1,19.0,60,1,p,203,49,51
4,1,NAN,3.0,NAN,0.9501683,2,1,3,1,19.0,60,1,o,204,51,49
4,1,NAN,3.0,NAN,0.4661327999999999,2,1,2,1,19.0,60,1,o,205,52,48
4,2,NAN,3.0,NAN,0.3986759,2,0,2,1,19.0,70,1,o,206,48,52
4,1,NAN,4.0,NAN,0.1475767,2,1,1,1,19.0,70,1,p,207,55,45
4,2,1.0,4.0,0.6707420999999999,0.3144257,2,1,1,1,19.0,50,1,p,208,45,55
4,2,1.0,4.0,0.8371972,0.2806903,2,1,1,1,19.0,50,1,p,209,45,55
4,2,1.0,4.0,0.5521803000000001,0.2811425,2,1,1,1,19.0,50,1,p,210,45,55
4,1,NAN,3.0,NAN,0.4838194999999999,2,1,2,1,19.0,60,1,o,211,52,48
4,1,NAN,3.0,NAN,0.0651910999999999,2,1,2,1,19.0,60,1,o,212,52,48
4,1,1.0,4.0,0.6872815,0.2779155,2,0,3,1,19.0,60,1,p,213,51,49
4,1,NAN,3.0,NAN,1.5338215,2,1,1,1,19.0,50,1,o,214,55,45
4,2,1.0,4.0,0.5182538,0.2295853,2,1,3,1,19.0,60,1,p,215,49,51
4,1,NAN,4.0,NAN,0.5344075,2,1,3,1,19.0,50,1,p,216,51,49
4,1,NAN,4.0,NAN,0.2685849,2,1,1,1,19.0,60,1,p,217,55,45
4,2,1.0,4.0,0.7545696999999999,0.2296929,2,1,1,1,19.0,50,1,p,218,45,55
4,1,NAN,4.0,NAN,0.3667934,2,1,1,1,19.0,50,1,p,219,55,45
4,2,NAN,4.0,NAN,0.5479583,2,0,1,1,19.0,70,1,p,220,45,55
4,2,NAN,4.0,NAN,0.7479076,2,0,3,1,19.0,70,1,p,221,49,51
4,1,1.0,4.0,0.6858451999999999,0.2967157,2,0,2,1,19.0,50,1,p,222,52,48
4,1,1.0,4.0,0.7534443000000001,0.2455879,2,0,3,1,19.0,50,1,p,223,51,49
4,1,NAN,3.0,NAN,0.3483446,2,1,1,1,19.0,70,1,o,224,55,45
4,2,NAN,3.0,NAN,0.3013775,2,0,3,1,19.0,70,1,o,225,49,51
4,2,1.0,4.0,0.9376463,0.281205,2,1,2,1,19.0,60,1,p,227,48,52
4,2,NAN,4.0,NAN,0.3336333,2,0,1,1,19.0,70,1,p,228,45,55
4,1,NAN,4.0,NAN,0.1156126,2,1,1,1,19.0,60,1,p,229,55,45
4,2,1.0,4.0,0.6708441999999999,0.2444112999999999,2,1,3,1,19.0,60,1,p,230,49,51
4,2,NAN,NAN,NAN,1.2495876,2,0,2,1,19.0,50,1,h,231,48,52
4,1,NAN,4.0,NAN,0.4677172,2,1,3,1,19.0,70,1,p,232,51,49
4,2,1.0,4.0,0.7521475999999999,0.3976087,2,1,3,1,19.0,50,1,p,233,49,51
4,1,NAN,4.0,NAN,1.0830315,2,1,3,1,19.0,70,1,p,234,51,49
4,2,1.0,4.0,0.6544284,0.2807318,2,1,2,1,19.0,70,1,p,235,48,52
4,2,NAN,NAN,NAN,1.6174105,2,0,2,1,19.0,50,1,h,236,48,52
4,2,NAN,NAN,NAN,1.4154541,2,0,1,1,19.0,60,1,h,237,45,55
4,1,NAN,3.0,NAN,0.3488297,2,1,2,1,19.0,70,1,o,238,52,48
4,1,NAN,3.0,NAN,0.3339299,2,1,2,1,19.0,70,1,o,239,52,48
4,1,NAN,4.0,NAN,0.5346529000000001,2,1,2,1,19.0,50,1,p,240,52,48
4,1,NAN,4.0,NAN,0.2014094,2,1,1,1,19.0,50,1,p,241,55,45
4,2,1.0,4.0,0.8044709,0.3617302,2,1,3,1,19.0,60,1,p,242,49,51
4,1,NAN,4.0,NAN,0.2840220999999999,2,1,1,1,19.0,60,1,p,243,55,45
4,1,1.0,4.0,0.604494,0.2810127,2,0,3,1,19.0,70,1,p,244,51,49
4,2,NAN,4.0,NAN,0.4150927,2,0,3,1,19.0,70,1,p,245,49,51
4,1,NAN,4.0,NAN,0.7816936,2,1,2,1,19.0,70,1,p,246,52,48
4,2,1.0,4.0,0.6210272,0.2956661,2,1,1,1,19.0,60,1,p,247,45,55
4,2,1.0,4.0,0.5230172000000001,0.3144853,2,1,2,1,19.0,60,1,p,248,48,52
4,1,1.0,4.0,0.5553129,0.2976544,2,0,3,1,19.0,50,1,p,249,51,49
4,2,1.0,4.0,0.874878,0.2291985,2,1,3,1,19.0,70,1,p,250,49,51
4,1,NAN,3.0,NAN,0.5339642,2,1,1,1,19.0,70,1,o,251,55,45
4,2,1.0,4.0,0.6854784,0.2963542,2,1,1,1,19.0,50,1,p,252,45,55
4,1,NAN,4.0,NAN,0.4980588999999999,2,1,3,1,19.0,70,1,p,253,51,49
4,2,1.0,4.0,0.5650566999999999,0.2629757,2,1,3,1,19.0,60,1,p,254,49,51
4,2,NAN,3.0,NAN,0.3826236,2,0,2,1,19.0,50,1,o,255,48,52
4,1,NAN,4.0,NAN,1.1844633,2,1,3,1,19.0,60,1,p,256,51,49
4,2,1.0,4.0,0.5557331999999999,0.2812068,2,1,1,1,19.0,70,1,p,257,45,55
4,1,NAN,3.0,NAN,0.5305635999999999,2,1,2,1,19.0,60,1,o,258,52,48
4,2,1.0,4.0,0.6534416000000001,0.3452226,2,1,3,1,19.0,50,1,p,259,49,51
4,2,1.0,4.0,0.6040694999999999,0.3459363,2,1,1,1,19.0,70,1,p,260,45,55
4,1,NAN,2.0,NAN,0.3482683,2,1,1,1,19.0,60,1,i,261,55,45
4,2,NAN,4.0,NAN,0.1487616,2,0,1,1,19.0,50,1,p,262,45,55
4,2,NAN,NAN,NAN,1.948085,2,0,2,1,19.0,60,1,h,263,48,52
4,2,NAN,3.0,NAN,1.917476,2,0,2,1,19.0,50,1,o,264,48,52
4,1,NAN,3.0,NAN,0.3676741,2,1,2,1,19.0,60,1,o,265,52,48
4,1,1.0,4.0,0.4883045999999999,0.3146002,2,0,2,1,19.0,70,1,p,266,52,48
4,1,1.0,4.0,0.6538848,0.2812364,2,0,3,1,19.0,50,1,p,267,51,49
4,2,1.0,4.0,0.6207482,0.297365,2,1,2,1,19.0,70,1,p,268,48,52
4,1,NAN,2.0,NAN,1.1308678,2,1,1,1,19.0,50,1,i,269,55,45
4,2,NAN,3.0,NAN,0.8161832,2,0,2,1,19.0,60,1,o,270,48,52
4,2,1.0,NAN,0.733456,1.5813508,2,1,3,1,19.0,60,1,h,271,49,51
4,1,NAN,4.0,NAN,0.3676354,2,1,1,1,19.0,50,1,p,272,55,45
4,2,NAN,4.0,NAN,0.3177097,2,0,3,1,19.0,50,1,p,273,49,51
4,1,1.0,4.0,0.7879195999999999,0.3115418,2,0,2,1,19.0,70,1,p,274,52,48
4,2,1.0,3.0,0.5509573,0.3137833,2,1,1,1,19.0,50,1,o,275,45,55
4,1,NAN,4.0,NAN,0.6502845,2,1,1,1,19.0,60,1,p,276,55,45
4,2,NAN,2.0,NAN,0.9315205,2,0,2,1,19.0,70,1,i,277,48,52
4,1,NAN,4.0,NAN,0.3483684999999999,2,1,1,1,19.0,50,1,p,278,55,45
4,1,NAN,4.0,NAN,0.1625162999999999,2,1,2,1,19.0,60,1,p,279,52,48
4,2,1.0,4.0,0.7389943,0.2643096,2,1,3,1,19.0,70,1,p,280,49,51
4,1,NAN,4.0,NAN,0.434065,2,1,3,1,19.0,70,1,p,281,51,49
4,2,1.0,4.0,0.4882689999999999,0.2812294,2,1,1,1,19.0,60,1,p,282,45,55
4,1,NAN,3.0,NAN,0.4306803,2,1,2,1,19.0,60,1,o,283,52,48
4,2,1.0,4.0,0.5872884,0.2627075,2,1,2,1,19.0,50,1,p,284,48,52
4,1,NAN,3.0,NAN,0.3319902,2,1,3,1,19.0,50,1,o,285,51,49
4,2,1.0,4.0,0.5803391,0.2463205,2,1,1,1,19.0,50,1,p,286,45,55
4,1,NAN,3.0,NAN,0.3154035999999999,2,1,2,1,19.0,50,1,o,287,52,48
4,2,NAN,4.0,NAN,0.4006959,2,0,3,1,19.0,70,1,p,288,49,51
4,1,NAN,4.0,NAN,0.3174488,2,1,3,1,19.0,60,1,p,289,51,49
4,2,1.0,4.0,0.4856738,0.3124927,2,1,2,1,19.0,50,1,p,290,48,52
4,1,NAN,4.0,NAN,0.3656511,2,1,1,1,19.0,70,1,p,291,55,45
4,1,NAN,3.0,NAN,0.8829739,2,1,2,1,19.0,70,1,o,292,52,48
4,1,1.0,4.0,0.9210995,0.2289085,2,0,3,1,19.0,50,1,p,293,51,49
4,1,NAN,4.0,NAN,0.3481344999999999,2,1,1,1,19.0,60,1,p,294,55,45
4,2,1.0,4.0,0.6345666,0.1959536,2,1,1,1,19.0,70,1,p,295,45,55
4,2,1.0,4.0,0.7381349,0.2312248999999999,2,1,3,1,19.0,60,1,p,296,49,51
4,2,1.0,4.0,0.8715293,0.3978511,2,1,1,1,19.0,70,1,p,297,45,55
4,1,NAN,4.0,NAN,0.2975977,2,1,3,1,19.0,70,1,p,298,51,49
4,2,1.0,4.0,0.7565871,0.2136144999999999,2,1,2,1,19.0,60,1,p,299,48,52
4,2,1.0,4.0,0.6209617,0.2962729,2,1,1,1,19.0,60,1,p,300,45,55
4,2,1.0,4.0,0.6038034999999999,0.2461525999999999,2,1,2,1,19.0,60,1,p,301,48,52
4,2,NAN,4.0,NAN,0.2801649,2,0,3,1,19.0,70,1,p,302,49,51
4,2,1.0,4.0,0.6028300999999999,0.3281559,2,1,1,1,19.0,50,1,p,303,45,55
4,2,1.0,4.0,0.8547805,0.3307418,2,1,3,1,19.0,60,1,p,304,49,51
4,2,NAN,2.0,NAN,0.449715,2,0,3,1,19.0,70,1,i,305,49,51
4,1,NAN,4.0,NAN,0.4178501,2,1,1,1,19.0,50,1,p,306,55,45
4,1,NAN,4.0,NAN,0.3842695,2,1,1,1,19.0,60,1,p,307,55,45
4,1,NAN,3.0,NAN,0.6843254,2,1,3,1,19.0,50,1,o,308,51,49
4,2,1.0,4.0,0.8379959000000001,0.2962655,2,1,3,1,19.0,50,1,p,309,49,51
4,2,1.0,4.0,0.2371047999999999,0.3630724999999999,2,1,1,1,19.0,70,1,p,310,45,55
4,2,1.0,4.0,0.6536132,0.27929,2,1,2,1,19.0,70,1,p,311,48,52
4,1,NAN,4.0,NAN,0.3510445,2,1,1,1,19.0,60,1,p,312,55,45
4,1,NAN,4.0,NAN,0.2839223,2,1,2,1,19.0,60,1,p,313,52,48
4,1,NAN,4.0,NAN,1.132376,2,1,3,1,19.0,60,1,p,314,51,49
4,2,NAN,NAN,NAN,1.2154482,2,0,1,1,19.0,70,1,h,315,45,55
4,1,NAN,3.0,NAN,0.9504118,2,1,3,1,19.0,70,1,o,316,51,49
4,1,NAN,3.0,NAN,0.6654246,2,1,3,1,19.0,70,1,o,317,51,49
4,2,1.0,4.0,0.5582129,0.2630465,2,1,3,1,19.0,60,1,p,318,49,51
4,2,1.0,4.0,0.6815743000000001,0.3132264,2,1,2,1,19.0,50,1,p,319,48,52
4,1,1.0,4.0,0.7232361999999999,0.2960837999999999,2,0,2,1,19.0,70,1,p,320,52,48
4,1,1.0,4.0,0.6388275999999999,0.31423,2,0,2,1,19.0,60,1,p,321,52,48
4,1,NAN,4.0,NAN,0.3151727,2,1,1,1,19.0,70,1,p,322,55,45
4,1,NAN,3.0,NAN,0.7266643,2,1,3,1,19.0,50,1,o,323,51,49
4,2,NAN,3.0,NAN,0.7823255,2,0,2,1,19.0,50,1,o,324,48,52
4,1,NAN,4.0,NAN,0.6335092,2,1,1,1,19.0,50,1,p,325,55,45
4,1,1.0,4.0,0.6867675999999999,0.2467087,2,0,2,1,19.0,50,1,p,326,52,48
4,2,1.0,4.0,0.6857511,0.246587,2,1,2,1,19.0,60,1,p,327,48,52
4,2,NAN,4.0,NAN,1.0005253,2,0,1,1,19.0,50,1,p,328,45,55
4,1,NAN,4.0,NAN,0.9843547,2,1,2,1,19.0,70,1,p,329,52,48
4,2,NAN,4.0,NAN,0.3991474,2,0,1,1,19.0,60,1,p,330,45,55
4,2,1.0,4.0,0.4537247,0.2628152,2,1,1,1,19.0,70,1,p,331,45,55
4,1,NAN,4.0,NAN,0.3152171,2,1,2,1,19.0,60,1,p,332,52,48
4,1,1.0,4.0,0.5798255,0.2455864,2,0,2,1,19.0,70,1,p,333,52,48
4,1,NAN,4.0,NAN,0.3812216,2,1,3,1,19.0,60,1,p,334,51,49
4,1,NAN,2.0,NAN,0.5986073000000001,2,1,1,1,19.0,70,1,i,335,55,45
4,2,1.0,4.0,0.5386423,0.2809027,2,1,2,1,19.0,50,1,p,336,48,52
4,2,1.0,4.0,0.5397111,0.347898,2,1,1,1,19.0,50,1,p,337,45,55
4,2,NAN,4.0,NAN,0.3339344999999999,2,0,3,1,19.0,50,1,p,338,49,51
4,1,NAN,3.0,NAN,0.8504881,2,1,3,1,19.0,70,1,o,339,51,49
4,1,NAN,3.0,NAN,0.5327005,2,1,2,1,19.0,50,1,o,340,52,48
4,2,NAN,2.0,NAN,0.0998006999999999,2,0,3,1,19.0,60,1,i,341,49,51
4,2,NAN,4.0,NAN,0.0144062999999999,2,0,3,1,19.0,60,1,p,342,49,51
4,1,NAN,4.0,NAN,0.5316719,2,1,3,1,19.0,70,1,p,343,51,49
4,1,NAN,4.0,NAN,0.4173417,2,1,2,1,19.0,70,1,p,344,52,48
4,1,NAN,4.0,NAN,0.0831373,2,1,1,1,19.0,50,1,p,345,55,45
4,1,NAN,4.0,NAN,1.234099,2,1,1,1,19.0,60,1,p,346,55,45
4,1,NAN,4.0,NAN,0.0835735,2,1,1,1,19.0,60,1,p,347,55,45
4,1,1.0,4.0,0.2676093,0.38109,2,0,2,1,19.0,60,1,p,348,52,48
4,1,NAN,3.0,NAN,0.1831566,2,1,1,1,19.0,50,1,o,349,55,45
4,1,NAN,3.0,NAN,0.5994103,2,1,3,1,19.0,50,1,o,350,51,49
4,1,1.0,4.0,0.7792698,0.3122252,2,0,3,1,19.0,50,1,p,351,51,49
4,2,1.0,4.0,0.589268,0.2815435,2,1,2,1,19.0,60,1,p,352,48,52
4,2,1.0,4.0,0.539157,0.2809867,2,1,1,1,19.0,70,1,p,353,45,55
4,2,1.0,4.0,0.8697034,0.2629008,2,1,2,1,19.0,60,1,p,354,48,52
4,2,NAN,3.0,NAN,0.9836117,2,0,3,1,19.0,70,1,o,355,49,51
4,2,1.0,4.0,0.4871294,0.2970796,2,1,2,1,19.0,50,1,p,356,48,52
4,2,NAN,3.0,NAN,0.5988081999999999,2,0,3,1,19.0,70,1,o,357,49,51
4,2,1.0,4.0,0.4635545999999999,0.2470778,2,1,1,1,19.0,50,1,p,358,45,55
4,2,1.0,4.0,0.2871634,0.3288084,2,1,2,1,19.0,70,1,p,359,48,52
4,2,1.0,4.0,0.6523753000000001,0.3146097,2,1,3,1,19.0,70,1,p,360,49,51
4,2,1.0,4.0,0.38844,0.2956274,2,1,2,1,19.0,60,1,p,361,48,52
4,1,NAN,4.0,NAN,0.3672574,2,1,1,1,19.0,50,1,p,362,55,45
4,1,NAN,2.0,NAN,0.3151755,2,1,3,1,19.0,70,1,i,363,51,49
4,1,NAN,4.0,NAN,0.2817952999999999,2,1,2,1,19.0,70,1,p,364,52,48
4,2,NAN,2.0,NAN,0.4332161,2,0,2,1,19.0,50,1,i,365,48,52
4,2,1.0,4.0,0.5708262,0.2635061999999999,2,1,1,1,19.0,70,1,p,366,45,55
4,1,NAN,4.0,NAN,0.7665090999999999,2,1,1,1,19.0,60,1,p,367,55,45
4,1,NAN,2.0,NAN,0.3175019,2,1,2,1,19.0,50,1,i,368,52,48
4,1,1.0,4.0,0.7534930000000001,0.3288047999999999,2,0,3,1,19.0,50,1,p,369,51,49
4,2,1.0,4.0,0.6712085999999999,0.3981347,2,1,3,1,19.0,50,1,p,370,49,51
4,2,1.0,4.0,0.4552263,0.3628345,2,1,3,1,19.0,60,1,p,371,49,51
4,2,NAN,4.0,NAN,0.2992844,2,0,3,1,19.0,70,1,p,372,49,51
4,1,1.0,4.0,0.8699530999999999,0.2463775999999999,2,0,3,1,19.0,70,1,p,373,51,49
4,1,NAN,4.0,NAN,0.2169797,2,1,2,1,19.0,60,1,p,374,52,48
4,2,NAN,4.0,NAN,0.0838102,2,0,3,1,19.0,60,1,p,375,49,51
4,1,NAN,4.0,NAN,0.3147205,2,1,1,1,19.0,50,1,p,376,55,45
4,1,NAN,3.0,NAN,0.3150134,2,1,3,1,19.0,60,1,o,377,51,49
4,2,1.0,4.0,0.6387946,0.29829,2,1,1,1,19.0,50,1,p,378,45,55
4,1,NAN,4.0,NAN,0.6495111,2,1,1,1,19.0,60,1,p,379,55,45
4,1,1.0,4.0,0.6303582,0.2814579,2,0,2,1,19.0,70,1,p,380,52,48
4,1,1.0,4.0,0.4713954999999999,0.279172,2,0,3,1,19.0,50,1,p,381,51,49
4,1,NAN,4.0,NAN,0.0838323,2,1,1,1,19.0,70,1,p,382,55,45
4,2,NAN,4.0,NAN,0.9147763,2,0,1,1,19.0,50,1,p,383,45,55
4,2,1.0,4.0,0.5870058000000001,0.2446853,2,1,2,1,19.0,50,1,p,384,48,52
4,1,NAN,4.0,NAN,0.3837524,2,1,2,1,19.0,60,1,p,385,52,48
4,2,NAN,4.0,NAN,0.1482967,2,0,2,1,19.0,70,1,p,386,48,52
4,2,1.0,4.0,0.6365945,0.1960387999999999,2,1,2,1,19.0,60,1,p,387,48,52
4,2,NAN,3.0,NAN,0.5656722,2,0,1,1,19.0,60,1,o,388,45,55
4,2,1.0,4.0,0.5680437,0.246375,2,1,1,1,19.0,70,1,p,389,45,55
5,2,NAN,4.0,NAN,0.6517527,1,1,1,1,19.0,60,1,p,0,45,55
5,2,1.0,3.0,0.6194873000000001,0.4151647,1,0,3,1,19.0,70,1,o,1,49,51
5,1,NAN,3.0,NAN,0.3854094,1,0,3,1,19.0,50,1,o,2,51,49
5,2,NAN,4.0,NAN,0.2850402999999999,1,1,1,1,19.0,70,1,p,3,45,55
5,2,NAN,3.0,NAN,0.2986185,1,1,2,1,19.0,50,1,o,4,48,52
5,2,NAN,3.0,NAN,0.3147005,1,1,1,1,19.0,70,1,o,5,45,55
5,2,1.0,3.0,0.4207644,0.4309361,1,0,3,1,19.0,70,1,o,6,49,51
5,2,1.0,3.0,0.6876875,0.4296566,1,0,1,1,19.0,50,1,o,7,45,55
5,1,1.0,3.0,0.7200371,0.4316718,1,1,2,1,19.0,50,1,o,8,52,48
5,2,NAN,3.0,NAN,0.3182985,1,1,3,1,19.0,60,1,o,9,49,51
5,2,NAN,4.0,NAN,0.2352727,1,1,1,1,19.0,50,1,p,10,45,55
5,1,1.0,4.0,0.5208399,0.4309977,1,1,1,1,19.0,50,1,p,11,55,45
5,1,1.0,3.0,0.5708161999999999,0.3959573,1,1,2,1,19.0,60,1,o,12,52,48
5,1,1.0,4.0,0.7295020000000001,0.4469019,1,1,1,1,19.0,60,1,p,13,55,45
5,1,1.0,3.0,0.6524661,0.5141116,1,1,2,1,19.0,70,1,o,14,52,48
5,2,NAN,3.0,NAN,0.5678645,1,1,3,1,19.0,50,1,o,15,49,51
5,2,NAN,3.0,NAN,0.4851237,1,1,2,1,19.0,50,1,o,16,48,52
5,1,1.0,4.0,0.4816457,0.4488427,1,1,1,1,19.0,50,1,p,17,55,45
5,1,1.0,3.0,0.6230245,0.4317015,1,1,2,1,19.0,60,1,o,18,52,48
5,1,1.0,3.0,0.839532,0.4317145999999999,1,1,2,1,19.0,70,1,o,19,52,48
5,1,1.0,3.0,0.8428429000000001,0.4646335,1,1,3,1,19.0,50,1,o,20,51,49
5,1,1.0,4.0,0.5843499,0.5624408000000001,1,1,3,1,19.0,70,1,p,21,51,49
5,2,1.0,3.0,0.5215065999999999,0.3969506,1,0,3,1,19.0,60,1,o,22,49,51
5,2,1.0,3.0,0.6001301,0.4460045,1,0,2,1,19.0,70,1,o,23,48,52
5,2,1.0,4.0,0.6843434,0.5144912,1,0,2,1,19.0,60,1,p,24,48,52
5,1,1.0,4.0,0.5552174,0.3980020999999999,1,1,1,1,19.0,60,1,p,25,55,45
5,1,1.0,4.0,0.5556304,0.3982005,1,1,3,1,19.0,60,1,p,26,51,49
5,2,1.0,3.0,0.6706493,0.4478765999999999,1,0,2,1,19.0,60,1,o,27,48,52
5,1,1.0,4.0,0.5736363,0.3624275,1,1,1,1,19.0,70,1,p,28,55,45
5,1,1.0,3.0,0.6877545,0.4121907,1,1,3,1,19.0,70,1,o,29,51,49
5,1,1.0,2.0,0.9355459,0.547774,1,1,2,1,19.0,70,1,i,30,52,48
5,1,1.0,4.0,0.5767796,0.5634584,1,1,1,1,19.0,50,1,p,31,55,45
5,1,1.0,4.0,0.4706087,0.3982277,1,1,1,1,19.0,60,1,p,32,55,45
5,2,1.0,4.0,0.6045003999999999,0.4796172999999999,1,0,2,1,19.0,50,1,p,33,48,52
5,2,1.0,3.0,0.9354632,0.396076,1,0,3,1,19.0,60,1,o,34,49,51
5,1,1.0,4.0,0.5521098000000001,0.4637234,1,1,2,1,19.0,70,1,p,35,52,48
5,1,NAN,4.0,NAN,0.5833451,1,0,3,1,19.0,60,1,p,36,51,49
5,1,1.0,3.0,0.8714871,0.612984,1,1,1,1,19.0,50,1,o,37,55,45
5,2,NAN,4.0,NAN,0.4502927,1,1,2,1,19.0,50,1,p,38,48,52
5,2,NAN,4.0,NAN,0.4659795999999999,1,1,3,1,19.0,50,1,p,39,49,51
5,1,1.0,3.0,0.7205441,0.4482555,1,1,1,1,19.0,60,1,o,40,55,45
5,2,NAN,4.0,NAN,0.3024166,1,1,1,1,19.0,50,1,p,41,45,55
5,2,NAN,4.0,NAN,0.3500944,1,1,1,1,19.0,60,1,p,42,45,55
5,2,1.0,3.0,0.8430059999999999,0.5813845999999999,1,0,3,1,19.0,60,1,o,43,49,51
5,1,1.0,3.0,0.6063791999999999,0.4477482,1,1,3,1,19.0,70,1,o,44,51,49
5,2,NAN,4.0,NAN,0.3654926,1,1,1,1,19.0,50,1,p,45,45,55
5,1,NAN,3.0,NAN,0.4006711,1,0,3,1,19.0,50,1,o,46,51,49
5,2,1.0,3.0,0.6811425,0.4801255,1,0,3,1,19.0,70,1,o,47,49,51
5,1,NAN,3.0,NAN,0.351881,1,0,2,1,19.0,50,1,o,48,52,48
5,1,NAN,3.0,NAN,0.3349727,1,0,2,1,19.0,60,1,o,49,52,48
5,2,NAN,4.0,NAN,0.2513713999999999,1,1,3,1,19.0,70,1,p,50,49,51
5,1,1.0,4.0,0.6746434,0.7296308000000001,1,1,2,1,19.0,60,1,p,51,52,48
5,2,NAN,4.0,NAN,0.3338848,1,1,1,1,19.0,70,1,p,52,45,55
5,2,NAN,4.0,NAN,0.2681060999999999,1,1,2,1,19.0,70,1,p,53,48,52
5,2,1.0,3.0,0.9177741,0.5309689999999999,1,0,2,1,19.0,60,1,o,54,48,52
5,2,NAN,4.0,NAN,0.5496358,1,1,1,1,19.0,70,1,p,55,45,55
5,1,1.0,4.0,0.8041213,0.5648645999999999,1,1,3,1,19.0,70,1,p,56,51,49
5,1,1.0,4.0,0.5199895999999999,0.4489099,1,1,1,1,19.0,70,1,p,57,55,45
5,2,NAN,4.0,NAN,0.1351697,1,1,2,1,19.0,60,1,p,58,48,52
5,1,1.0,3.0,0.6317786999999999,0.5478221,1,1,3,1,19.0,50,1,o,59,51,49
5,2,NAN,4.0,NAN,0.3826591,1,1,1,1,19.0,50,1,p,60,45,55
5,1,1.0,4.0,0.6525377,0.6139836,1,1,1,1,19.0,50,1,p,61,55,45
5,2,NAN,4.0,NAN,0.3505981999999999,1,1,2,1,19.0,50,1,p,62,48,52
5,1,1.0,3.0,0.5354085,0.3792884,1,1,3,1,19.0,70,1,o,63,51,49
5,2,NAN,3.0,NAN,0.6644601,1,1,2,1,19.0,70,1,o,64,48,52
5,2,NAN,3.0,NAN,0.2983071,1,1,3,1,19.0,60,1,o,65,49,51
5,1,1.0,3.0,0.3863175,0.5291826,1,1,3,1,19.0,70,1,o,66,51,49
5,1,1.0,4.0,0.4735469,0.4463354999999999,1,1,1,1,19.0,60,1,p,67,55,45
5,1,NAN,3.0,NAN,0.2314534,1,0,3,1,19.0,50,1,o,68,51,49
5,1,1.0,3.0,0.5806081999999999,0.4468237,1,1,2,1,19.0,70,1,o,69,52,48
5,2,1.0,3.0,0.7371946,0.447031,1,0,2,1,19.0,50,1,o,70,48,52
5,2,1.0,3.0,0.8216758,0.3962646999999999,1,0,3,1,19.0,60,1,o,71,49,51
5,2,NAN,4.0,NAN,0.3647433,1,1,1,1,19.0,70,1,p,72,45,55
5,2,1.0,3.0,0.7819918,0.4298108,1,0,1,1,19.0,70,1,o,73,45,55
