Subj_idx,Stimulus,Response,Confidence,RT_dec,RT_conf,Condition,Accuracy,Difficulty,Gender,Age,Fix_time,Block,Conf_key,Trial,L_dots,R_dots
1,2,NAN,4.0,NAN,0.6517718000000001,1,1,2,1,19.0,60,0,p,0,48,52
1,2,NAN,4.0,NAN,0.5850488,1,1,2,1,19.0,60,0,p,1,48,52
1,1,NAN,4.0,NAN,0.6523502,1,0,2,1,19.0,60,0,p,2,52,48
1,1,1.0,4.0,0.8122998,0.6988883,1,1,1,1,19.0,60,0,p,3,55,45
1,1,NAN,4.0,NAN,1.0191703,1,0,3,1,19.0,60,0,p,4,51,49
1,1,1.0,4.0,0.7233656999999999,0.5500361999999999,1,1,3,1,19.0,70,0,p,5,51,49
1,1,NAN,4.0,NAN,0.0361187,1,0,2,1,19.0,50,0,p,6,52,48
1,2,NAN,4.0,NAN,0.5688173000000001,1,1,3,1,19.0,50,0,p,7,49,51
1,2,NAN,4.0,NAN,0.4521916,1,1,1,1,19.0,50,0,p,8,45,55
1,1,1.0,4.0,0.7727335,0.5149807,1,1,1,1,19.0,70,0,p,9,55,45
1,2,NAN,4.0,NAN,0.6195906,1,1,3,1,19.0,70,0,p,10,49,51
1,2,NAN,4.0,NAN,0.7192647,1,1,3,1,19.0,60,0,p,11,49,51
1,1,1.0,4.0,0.6067548,0.4661814,1,1,3,1,19.0,50,0,p,12,51,49
1,2,NAN,4.0,NAN,0.4521784,1,1,3,1,19.0,60,0,p,13,49,51
1,2,NAN,3.0,NAN,0.6688816999999999,1,1,2,1,19.0,70,0,o,14,48,52
1,1,1.0,4.0,0.6010309,0.9144783,1,1,2,1,19.0,70,0,p,17,52,48
1,2,NAN,2.0,NAN,1.0191046,1,1,1,1,19.0,50,0,i,18,45,55
1,2,NAN,2.0,NAN,1.40315,1,1,3,1,19.0,70,0,i,19,49,51
1,2,1.0,NAN,0.8382726,1.6999337,1,0,1,1,19.0,70,0,h,20,45,55
1,1,NAN,1.0,NAN,1.7191421000000002,1,0,1,1,19.0,60,0,u,21,55,45
1,1,1.0,2.0,0.3055483,1.2993879,1,1,3,1,19.0,70,0,i,22,51,49
1,2,1.0,1.0,0.8499456,0.6981398,1,0,2,1,19.0,50,0,u,23,48,52
1,1,1.0,3.0,0.7482699,0.8483381,1,1,1,1,19.0,50,0,o,24,55,45
1,1,NAN,3.0,NAN,0.6518297,1,0,3,1,19.0,50,0,o,25,51,49
1,2,NAN,4.0,NAN,0.4861363,1,1,1,1,19.0,60,0,p,26,45,55
1,2,NAN,4.0,NAN,0.7035675,1,1,1,1,19.0,70,0,p,27,45,55
1,1,1.0,4.0,0.8592154000000001,0.7667385,1,1,2,1,19.0,60,0,p,28,52,48
1,2,1.0,3.0,0.9570489,0.5492981,1,0,2,1,19.0,50,0,o,29,48,52
1,2,NAN,4.0,NAN,0.7186648,1,1,2,1,19.0,60,0,p,31,48,52
1,2,NAN,2.0,NAN,0.7683831,1,1,2,1,19.0,70,0,i,32,48,52
1,1,1.0,3.0,0.8743625,0.8984155,1,1,1,1,19.0,60,0,o,33,55,45
1,1,NAN,4.0,NAN,0.8193444999999999,1,0,3,1,19.0,70,0,p,34,51,49
1,2,NAN,4.0,NAN,0.6189821,1,1,3,1,19.0,50,0,p,35,49,51
1,2,NAN,4.0,NAN,0.7372257,1,1,2,1,19.0,60,0,p,36,48,52
1,2,NAN,3.0,NAN,1.0365463,1,1,3,1,19.0,70,0,o,37,49,51
1,1,NAN,3.0,NAN,0.9710924,1,0,3,1,19.0,50,0,o,38,51,49
1,1,NAN,3.0,NAN,1.4362695,1,0,3,1,19.0,50,0,o,39,51,49
1,1,1.0,4.0,0.2704557,0.9994902,1,1,1,1,19.0,70,0,p,40,55,45
1,1,1.0,2.0,0.7572604000000001,0.9328404,1,1,3,1,19.0,70,0,i,41,51,49
1,2,NAN,4.0,NAN,0.5863122,1,1,3,1,19.0,70,0,p,42,49,51
1,2,NAN,4.0,NAN,0.7867858,1,1,1,1,19.0,70,0,p,43,45,55
1,1,NAN,3.0,NAN,1.0198784,1,0,1,1,19.0,50,0,o,44,55,45
1,1,NAN,3.0,NAN,0.9367392,1,0,3,1,19.0,60,0,o,45,51,49
1,1,1.0,2.0,0.762694,0.7157106,1,1,1,1,19.0,50,0,i,47,55,45
1,1,NAN,2.0,NAN,0.8199605,1,0,1,1,19.0,60,0,i,48,55,45
1,1,NAN,3.0,NAN,0.753709,1,0,2,1,19.0,60,0,o,49,52,48
1,1,1.0,3.0,0.7897156999999999,0.8186683000000001,1,1,2,1,19.0,70,0,o,50,52,48
1,2,NAN,2.0,NAN,0.9036008,1,1,2,1,19.0,50,0,i,51,48,52
1,2,1.0,2.0,0.9057986,1.1176545,1,0,3,1,19.0,60,0,i,52,49,51
1,1,NAN,1.0,NAN,1.1035245,1,0,2,1,19.0,60,0,u,53,52,48
1,2,1.0,4.0,0.5902473000000001,1.0814506000000002,1,0,2,1,19.0,50,0,p,54,48,52
1,1,1.0,4.0,0.7579183,0.8668789000000001,1,1,2,1,19.0,70,0,p,55,52,48
1,2,1.0,NAN,0.8898478000000001,1.5839656000000002,1,0,1,1,19.0,50,0,h,56,45,55
1,1,NAN,2.0,NAN,1.4363986999999998,1,0,2,1,19.0,50,0,i,57,52,48
1,2,NAN,NAN,NAN,1.4024138000000002,1,1,3,1,19.0,60,0,h,58,49,51
1,2,NAN,4.0,NAN,0.7715054,1,1,1,1,19.0,70,0,p,59,45,55
1,1,NAN,4.0,NAN,0.7538676,1,0,3,1,19.0,50,0,p,60,51,49
1,1,NAN,4.0,NAN,0.83678,1,0,3,1,19.0,70,0,p,61,51,49
1,2,NAN,4.0,NAN,0.8023508,1,1,3,1,19.0,50,0,p,62,49,51
1,2,NAN,4.0,NAN,0.8019293000000001,1,1,2,1,19.0,60,0,p,63,48,52
1,1,NAN,2.0,NAN,0.7359117,1,0,2,1,19.0,60,0,i,64,52,48
1,2,NAN,4.0,NAN,0.6700735999999999,1,1,1,1,19.0,70,0,p,65,45,55
1,2,NAN,4.0,NAN,1.0044036,1,1,1,1,19.0,50,0,p,66,45,55
1,2,NAN,4.0,NAN,0.7534833000000001,1,1,1,1,19.0,50,0,p,67,45,55
1,1,1.0,2.0,0.8572496,0.6676810999999999,1,1,1,1,19.0,60,0,i,68,55,45
1,1,NAN,4.0,NAN,0.9535056,1,0,2,1,19.0,50,0,p,69,52,48
1,1,1.0,4.0,0.7612434,0.5833056,1,1,1,1,19.0,50,0,p,70,55,45
1,1,1.0,1.0,0.8735178,1.2678947,1,1,2,1,19.0,70,0,u,71,52,48
1,2,NAN,4.0,NAN,0.9034782,1,1,2,1,19.0,70,0,p,72,48,52
1,2,NAN,2.0,NAN,0.9870446,1,1,3,1,19.0,70,0,i,73,49,51
1,2,1.0,NAN,0.8070118000000001,1.4507427,1,0,3,1,19.0,60,0,h,74,49,51
1,1,NAN,4.0,NAN,0.8043811,1,0,1,1,19.0,70,0,p,75,55,45
1,1,NAN,4.0,NAN,0.7201470999999999,1,0,3,1,19.0,60,0,p,76,51,49
1,2,NAN,4.0,NAN,0.8365994000000001,1,1,3,1,19.0,70,0,p,77,49,51
1,1,NAN,3.0,NAN,0.8366450999999999,1,0,1,1,19.0,50,0,o,78,55,45
1,2,NAN,4.0,NAN,0.7358389,1,1,2,1,19.0,60,0,p,79,48,52
1,2,NAN,2.0,NAN,0.7198813000000001,1,1,2,1,19.0,50,0,i,80,48,52
1,2,NAN,NAN,NAN,1.5034803999999995,1,1,3,1,19.0,60,0,h,81,49,51
1,1,1.0,3.0,0.661624,0.6841801,1,1,2,1,19.0,60,0,o,82,52,48
1,1,1.0,1.0,0.9069545,0.6674093000000001,1,1,3,1,19.0,50,0,u,83,51,49
1,1,1.0,4.0,0.789093,0.5660499,1,1,1,1,19.0,60,0,p,84,55,45
1,2,NAN,3.0,NAN,0.9032259,1,1,1,1,19.0,70,0,o,85,45,55
1,1,1.0,4.0,0.7460988000000001,0.6510166999999999,1,1,2,1,19.0,70,0,p,86,52,48
1,2,1.0,NAN,0.8545643,1.9337864,1,0,1,1,19.0,60,0,h,87,45,55
1,2,NAN,4.0,NAN,0.5123675,1,1,2,1,19.0,50,0,p,88,48,52
1,1,NAN,4.0,NAN,0.4530768,1,0,3,1,19.0,70,0,p,89,51,49
1,1,1.0,3.0,0.55735,1.0495928,1,1,2,1,19.0,60,0,o,90,52,48
1,2,NAN,4.0,NAN,0.4374899,1,1,1,1,19.0,50,0,p,91,45,55
1,1,NAN,4.0,NAN,0.4539858,1,0,2,1,19.0,70,0,p,92,52,48
1,1,NAN,3.0,NAN,0.5194018,1,0,3,1,19.0,50,0,o,93,51,49
1,2,1.0,3.0,0.2582127,0.9663276,1,0,3,1,19.0,70,0,o,94,49,51
1,1,1.0,4.0,0.7675909000000001,0.7985563,1,1,3,1,19.0,60,0,p,95,51,49
1,1,1.0,3.0,0.5881501,1.3484771999999998,1,1,3,1,19.0,70,0,o,97,51,49
1,2,1.0,3.0,0.9551457,0.5316142,1,0,3,1,19.0,60,0,o,98,49,51
1,1,1.0,3.0,0.7046316,0.7182759,1,1,2,1,19.0,70,0,o,99,52,48
1,2,NAN,4.0,NAN,0.6875199000000001,1,1,3,1,19.0,60,0,p,100,49,51
1,2,NAN,4.0,NAN,0.5706781999999999,1,1,1,1,19.0,70,0,p,101,45,55
1,2,1.0,3.0,0.838245,0.5842265,1,0,2,1,19.0,60,0,o,102,48,52
1,1,NAN,4.0,NAN,0.7191906,1,0,2,1,19.0,50,0,p,103,52,48
1,2,NAN,3.0,NAN,0.9862889,1,1,2,1,19.0,60,0,o,104,48,52
1,1,1.0,2.0,0.6909301999999999,0.5989521,1,1,1,1,19.0,60,0,i,105,55,45
1,2,1.0,NAN,0.7981839,1.0012544,1,0,2,1,19.0,50,0,h,106,48,52
1,1,NAN,2.0,NAN,0.9712772,1,0,3,1,19.0,50,0,i,107,51,49
1,2,1.0,4.0,0.9155989,0.5849475000000001,1,0,1,1,19.0,50,0,p,108,45,55
1,1,1.0,2.0,0.7362703,0.6012526,1,1,1,1,19.0,50,0,i,109,55,45
1,1,1.0,1.0,0.6924764,0.8153393,1,1,1,1,19.0,60,0,u,110,55,45
1,2,NAN,4.0,NAN,0.5194964,1,1,2,1,19.0,70,0,p,111,48,52
1,2,NAN,2.0,NAN,1.0358341,1,1,2,1,19.0,50,0,i,112,48,52
1,1,1.0,4.0,0.6403284,1.0174848,1,1,1,1,19.0,50,0,p,113,55,45
1,2,NAN,4.0,NAN,0.5205004,1,1,1,1,19.0,70,0,p,114,45,55
1,2,NAN,4.0,NAN,0.420591,1,1,1,1,19.0,60,0,p,115,45,55
1,1,NAN,3.0,NAN,0.503413,1,0,3,1,19.0,70,0,o,116,51,49
1,1,NAN,4.0,NAN,0.8025084,1,0,2,1,19.0,60,0,p,117,52,48
1,2,1.0,4.0,0.8400498,0.6498839,1,0,3,1,19.0,50,0,p,118,49,51
1,2,NAN,4.0,NAN,0.6360741,1,1,3,1,19.0,70,0,p,119,49,51
1,1,NAN,4.0,NAN,0.819129,1,0,2,1,19.0,70,0,p,120,52,48
1,2,NAN,3.0,NAN,0.6194893,1,1,1,1,19.0,50,0,o,121,45,55
1,1,NAN,4.0,NAN,0.436681,1,0,3,1,19.0,50,0,p,122,51,49
1,1,NAN,4.0,NAN,0.4531353,1,0,1,1,19.0,70,0,p,123,55,45
1,2,1.0,4.0,0.308079,0.7994028000000001,1,0,2,1,19.0,60,0,p,124,48,52
1,2,NAN,4.0,NAN,0.3373954,1,1,2,1,19.0,50,0,p,125,48,52
1,1,1.0,3.0,0.8572755999999999,0.7507934,1,1,2,1,19.0,70,0,o,126,52,48
1,2,NAN,4.0,NAN,0.7526238000000001,1,1,3,1,19.0,50,0,p,127,49,51
1,2,NAN,4.0,NAN,0.4693299,1,1,3,1,19.0,60,0,p,128,49,51
1,2,NAN,3.0,NAN,0.6526304,1,1,3,1,19.0,60,0,o,129,49,51
1,2,NAN,4.0,NAN,0.4874507,1,1,1,1,19.0,60,0,p,130,45,55
1,1,1.0,3.0,0.85721,0.951717,1,1,1,1,19.0,50,0,o,131,55,45
1,2,NAN,4.0,NAN,0.5380378,1,1,1,1,19.0,50,0,p,132,45,55
1,1,1.0,3.0,0.778624,0.7339906999999999,1,1,1,1,19.0,60,0,o,133,55,45
1,2,NAN,NAN,NAN,1.1360697,1,1,1,1,19.0,70,0,h,134,45,55
1,2,NAN,4.0,NAN,0.6853244000000001,1,1,2,1,19.0,50,0,p,135,48,52
1,2,NAN,3.0,NAN,0.5693871,1,1,1,1,19.0,70,0,o,136,45,55
1,1,1.0,4.0,0.6084951999999999,0.6481988000000001,1,1,2,1,19.0,60,0,p,137,52,48
1,2,NAN,4.0,NAN,0.6203981,1,1,2,1,19.0,70,0,p,138,48,52
1,1,1.0,4.0,0.5758308000000001,0.6777914,1,1,1,1,19.0,50,0,p,139,55,45
1,2,1.0,3.0,0.6560509,0.6838884,1,0,3,1,19.0,70,0,o,140,49,51
1,1,1.0,4.0,0.8743905000000001,0.6677938,1,1,3,1,19.0,70,0,p,141,51,49
1,1,1.0,4.0,0.7356060999999999,0.9673162,1,1,2,1,19.0,50,0,p,142,52,48
1,1,NAN,1.0,NAN,1.3021713,1,0,3,1,19.0,50,0,u,143,51,49
1,2,1.0,2.0,0.9074792,0.998803,1,0,3,1,19.0,70,0,i,144,49,51
1,2,NAN,4.0,NAN,0.803312,1,1,2,1,19.0,60,0,p,145,48,52
1,1,NAN,2.0,NAN,0.9878115,1,0,1,1,19.0,60,0,i,146,55,45
1,1,1.0,2.0,0.3597023,1.0010695,1,1,2,1,19.0,60,0,i,147,52,48
1,1,1.0,3.0,0.4751581,0.7007507,1,1,3,1,19.0,60,0,o,148,51,49
1,1,1.0,2.0,0.4395805,0.8340098,1,1,3,1,19.0,70,0,i,149,51,49
1,2,NAN,4.0,NAN,0.4375344,1,1,1,1,19.0,50,0,p,150,45,55
1,2,1.0,3.0,0.6742376999999999,0.7495823,1,0,1,1,19.0,70,0,o,151,45,55
1,2,NAN,4.0,NAN,0.7022348,1,1,2,1,19.0,50,0,p,152,48,52
1,2,NAN,4.0,NAN,0.4191152,1,1,2,1,19.0,60,0,p,153,48,52
1,1,1.0,3.0,0.6889525,0.6008272,1,1,1,1,19.0,60,0,o,154,55,45
1,1,NAN,NAN,NAN,1.4543342,1,0,3,1,19.0,70,0,h,155,51,49
1,2,NAN,4.0,NAN,0.6869839,1,1,3,1,19.0,60,0,p,156,49,51
1,1,1.0,3.0,0.8911825999999999,0.6517649,1,1,1,1,19.0,50,0,o,157,55,45
1,2,NAN,4.0,NAN,0.5205523,1,1,1,1,19.0,50,0,p,158,45,55
1,2,NAN,4.0,NAN,0.4519034,1,1,3,1,19.0,70,0,p,159,49,51
1,2,NAN,4.0,NAN,0.7020751000000001,1,1,1,1,19.0,70,0,p,160,45,55
1,1,NAN,1.0,NAN,0.8530777,1,0,3,1,19.0,50,0,u,161,51,49
1,1,1.0,3.0,0.9088814,0.8331004000000001,1,1,3,1,19.0,70,0,o,162,51,49
1,1,1.0,3.0,0.8257167,0.7176719,1,1,1,1,19.0,50,0,o,163,55,45
1,1,1.0,2.0,0.7569536,0.6674611999999999,1,1,2,1,19.0,60,0,i,164,52,48
1,2,NAN,3.0,NAN,0.6534506999999999,1,1,2,1,19.0,70,0,o,165,48,52
1,2,NAN,4.0,NAN,0.5533170000000001,1,1,2,1,19.0,50,0,p,166,48,52
1,2,NAN,4.0,NAN,0.5354338000000001,1,1,1,1,19.0,60,0,p,167,45,55
1,1,1.0,3.0,0.6400697,0.851216,1,1,2,1,19.0,70,0,o,168,52,48
1,2,NAN,3.0,NAN,0.8190479,1,1,3,1,19.0,70,0,o,169,49,51
1,1,1.0,4.0,0.8445759,0.6344989999999999,1,1,3,1,19.0,60,0,p,170,51,49
1,2,NAN,2.0,NAN,1.0520245,1,1,3,1,19.0,60,0,i,171,49,51
1,2,NAN,3.0,NAN,0.4529478,1,1,2,1,19.0,60,0,o,172,48,52
1,1,NAN,4.0,NAN,0.4868505,1,0,2,1,19.0,60,0,p,173,52,48
1,1,NAN,4.0,NAN,0.6375305,1,0,3,1,19.0,50,0,p,174,51,49
1,1,1.0,4.0,0.5743763000000001,0.5330826999999999,1,1,1,1,19.0,60,0,p,175,55,45
1,1,1.0,3.0,0.6845962,0.6324624,1,1,2,1,19.0,70,0,o,176,52,48
1,1,NAN,4.0,NAN,0.3527529,1,0,2,1,19.0,50,0,p,177,52,48
1,1,1.0,3.0,0.9077358,0.8338698,1,1,1,1,19.0,70,0,o,178,55,45
1,2,1.0,4.0,0.5539588000000001,0.6020535,1,0,3,1,19.0,50,0,p,179,49,51
1,1,NAN,4.0,NAN,0.5346181999999999,1,0,2,1,19.0,60,0,p,180,52,48
1,1,1.0,4.0,0.690442,0.6841884,1,1,1,1,19.0,50,0,p,181,55,45
1,1,NAN,4.0,NAN,0.4202922,1,0,3,1,19.0,70,0,p,182,51,49
1,2,NAN,4.0,NAN,0.4029772,1,1,2,1,19.0,70,0,p,183,48,52
1,2,NAN,4.0,NAN,0.3698555,1,1,3,1,19.0,60,0,p,184,49,51
1,2,NAN,4.0,NAN,0.3858041,1,1,1,1,19.0,50,0,p,185,45,55
1,2,NAN,4.0,NAN,0.3357005999999999,1,1,1,1,19.0,70,0,p,186,45,55
1,1,NAN,4.0,NAN,0.3200783,1,0,3,1,19.0,70,0,p,187,51,49
1,1,1.0,3.0,0.9644742,0.7497661,1,1,3,1,19.0,50,0,o,188,51,49
1,1,1.0,2.0,0.7921553000000001,0.5677371999999999,1,1,2,1,19.0,70,0,i,189,52,48
1,2,NAN,3.0,NAN,0.6375841,1,1,2,1,19.0,60,0,o,190,48,52
1,2,1.0,2.0,0.7892824,1.4000329,1,0,2,1,19.0,50,0,i,191,48,52
1,1,1.0,3.0,0.8898450999999999,0.715689,1,1,3,1,19.0,60,0,o,192,51,49
1,2,NAN,4.0,NAN,0.4696732,1,1,1,1,19.0,70,0,p,193,45,55
1,1,1.0,4.0,0.7080213000000001,0.5314243000000001,1,1,1,1,19.0,70,0,p,194,55,45
1,1,NAN,4.0,NAN,0.3534731,1,0,2,1,19.0,60,0,p,195,52,48
1,2,1.0,3.0,0.5910685,0.7352097,1,0,2,1,19.0,60,0,o,196,48,52
1,2,NAN,4.0,NAN,0.3873076,1,1,1,1,19.0,50,0,p,197,45,55
1,2,1.0,2.0,0.7955405,0.7679053000000001,1,0,3,1,19.0,60,0,i,198,49,51
1,1,1.0,3.0,0.7228222,0.765008,1,1,3,1,19.0,50,0,o,199,51,49
1,1,1.0,4.0,0.7078726,0.5148649000000001,1,1,1,1,19.0,50,0,p,200,55,45
1,2,NAN,4.0,NAN,0.4529405999999999,1,1,1,1,19.0,60,0,p,201,45,55
1,1,1.0,4.0,0.64161,0.6007683000000001,1,1,1,1,19.0,60,0,p,202,55,45
1,2,NAN,3.0,NAN,0.6534595999999999,1,1,3,1,19.0,50,0,o,203,49,51
1,1,1.0,4.0,0.6569859,0.6178967,1,1,2,1,19.0,50,0,p,204,52,48
1,1,NAN,4.0,NAN,0.3528698,1,0,2,1,19.0,70,0,p,205,52,48
1,1,1.0,3.0,0.6735846999999999,0.7485689999999999,1,1,1,1,19.0,60,0,o,206,55,45
1,2,NAN,4.0,NAN,0.6354888000000001,1,1,2,1,19.0,50,0,p,207,48,52
1,2,NAN,4.0,NAN,0.7699549,1,1,3,1,19.0,70,0,p,208,49,51
1,2,NAN,3.0,NAN,0.4031865,1,1,3,1,19.0,70,0,o,209,49,51
1,2,NAN,4.0,NAN,0.487407,1,1,3,1,19.0,60,0,p,210,49,51
1,2,1.0,3.0,0.5241754,0.7009962,1,0,2,1,19.0,60,0,o,211,48,52
1,1,NAN,2.0,NAN,0.7862697,1,0,2,1,19.0,60,0,i,212,52,48
1,2,NAN,4.0,NAN,0.5200664,1,1,1,1,19.0,70,0,p,213,45,55
1,2,NAN,4.0,NAN,0.6696413,1,1,2,1,19.0,60,0,p,214,48,52
1,2,NAN,4.0,NAN,0.8192988000000001,1,1,1,1,19.0,70,0,p,215,45,55
1,1,1.0,3.0,0.2831474,0.7815076,1,1,1,1,19.0,60,0,o,216,55,45
1,1,NAN,4.0,NAN,0.4198393,1,0,3,1,19.0,60,0,p,217,51,49
1,2,NAN,4.0,NAN,0.5876653000000001,1,1,3,1,19.0,70,0,p,218,49,51
1,1,1.0,3.0,0.5694658,0.5177188,1,1,3,1,19.0,70,0,o,219,51,49
1,2,1.0,4.0,0.6047859999999999,0.5827756,1,0,3,1,19.0,70,0,p,220,49,51
1,1,1.0,3.0,0.4735617999999999,0.7004625,1,1,2,1,19.0,60,0,o,221,52,48
1,2,NAN,4.0,NAN,0.3704207,1,1,3,1,19.0,60,0,p,222,49,51
1,2,NAN,4.0,NAN,0.4035641,1,1,1,1,19.0,60,0,p,223,45,55
1,1,NAN,4.0,NAN,0.3193479,1,0,3,1,19.0,50,0,p,224,51,49
1,1,1.0,2.0,0.7403553,0.4648084,1,1,2,1,19.0,70,0,i,225,52,48
1,1,1.0,4.0,0.5733166000000001,0.5664063,1,1,1,1,19.0,60,0,p,226,55,45
1,1,NAN,4.0,NAN,0.6200689,1,0,2,1,19.0,50,0,p,227,52,48
1,2,NAN,4.0,NAN,0.5375618000000001,1,1,1,1,19.0,50,0,p,228,45,55
1,1,NAN,NAN,NAN,1.3871731,1,0,3,1,19.0,50,0,h,229,51,49
1,2,1.0,1.0,0.8238861999999999,1.3676596,1,0,2,1,19.0,50,0,u,230,48,52
1,1,1.0,4.0,0.8212287,0.3796242999999999,1,1,1,1,19.0,50,0,p,231,55,45
1,1,1.0,4.0,0.6563001,0.44955,1,1,1,1,19.0,50,0,p,232,55,45
1,2,NAN,4.0,NAN,0.5189443,1,1,2,1,19.0,70,0,p,233,48,52
1,2,1.0,4.0,0.7581173000000001,0.5839765,1,0,3,1,19.0,50,0,p,234,49,51
1,1,1.0,4.0,0.8070126999999999,0.6005265000000001,1,1,2,1,19.0,70,0,p,235,52,48
1,2,1.0,4.0,0.9234829,0.4500680999999999,1,0,2,1,19.0,50,0,p,236,48,52
1,1,1.0,4.0,0.5952980999999999,0.6177529,1,1,1,1,19.0,70,0,p,237,55,45
1,1,NAN,3.0,NAN,0.4038257999999999,1,0,3,1,19.0,70,0,o,238,51,49
1,2,NAN,4.0,NAN,0.4366619,1,1,1,1,19.0,50,0,p,239,45,55
1,1,NAN,4.0,NAN,0.4361224,1,0,3,1,19.0,60,0,p,240,51,49
1,1,1.0,4.0,0.6338220999999999,0.5172069,1,1,2,1,19.0,60,0,p,241,52,48
1,2,NAN,3.0,NAN,0.487843,1,1,2,1,19.0,50,0,o,242,48,52
1,2,NAN,4.0,NAN,0.3866452,1,1,2,1,19.0,60,0,p,243,48,52
1,1,NAN,4.0,NAN,0.3525902999999999,1,0,3,1,19.0,70,0,p,244,51,49
1,1,1.0,4.0,0.5078600999999999,0.5007064,1,1,3,1,19.0,70,0,p,245,51,49
1,2,NAN,4.0,NAN,0.5037126000000001,1,1,1,1,19.0,60,0,p,246,45,55
1,2,NAN,4.0,NAN,0.3695966,1,1,1,1,19.0,70,0,p,247,45,55
1,2,1.0,3.0,0.6029361,0.6815325,1,0,3,1,19.0,70,0,o,248,49,51
1,2,NAN,4.0,NAN,0.4858434,1,1,2,1,19.0,60,0,p,249,48,52
1,1,1.0,3.0,0.6241357,0.6677503,1,1,1,1,19.0,50,0,o,250,55,45
1,1,NAN,1.0,NAN,1.2038664,1,0,2,1,19.0,70,0,u,251,52,48
1,1,1.0,4.0,0.7408206,0.550996,1,1,1,1,19.0,60,0,p,252,55,45
1,1,NAN,4.0,NAN,0.7873893,1,0,2,1,19.0,50,0,p,253,52,48
1,2,1.0,3.0,0.7588494,0.6995165,1,0,3,1,19.0,50,0,o,254,49,51
1,1,NAN,3.0,NAN,0.6360861,1,0,2,1,19.0,70,0,o,255,52,48
1,2,1.0,NAN,0.8577461,1.2840291,1,0,1,1,19.0,50,0,h,256,45,55
1,2,1.0,3.0,0.5955522,0.7623194000000001,1,0,3,1,19.0,70,0,o,257,49,51
1,1,NAN,2.0,NAN,0.5200026,1,0,1,1,19.0,70,0,i,258,55,45
1,2,NAN,4.0,NAN,0.8200531999999999,1,1,1,1,19.0,70,0,p,259,45,55
1,1,NAN,1.0,NAN,0.6346159,1,0,1,1,19.0,50,0,u,260,55,45
1,2,1.0,3.0,0.6859251000000001,0.6504976,1,0,3,1,19.0,60,0,o,261,49,51
1,1,1.0,4.0,0.4786166,0.5335251,1,1,1,1,19.0,60,0,p,262,55,45
1,2,1.0,3.0,0.7351546999999999,0.6648968000000001,1,0,1,1,19.0,50,0,o,263,45,55
1,2,1.0,2.0,0.9344008,0.8165013000000001,1,0,2,1,19.0,70,0,i,264,48,52
1,1,NAN,4.0,NAN,0.7689953,1,0,3,1,19.0,50,0,p,265,51,49
1,1,1.0,3.0,0.438247,0.9172977,1,1,2,1,19.0,60,0,o,266,52,48
1,1,1.0,3.0,0.6752493,0.5685925000000001,1,1,3,1,19.0,50,0,o,267,51,49
1,2,1.0,4.0,0.6584361,0.6681725000000001,1,0,2,1,19.0,50,0,p,268,48,52
1,2,1.0,3.0,0.7732227,0.6348075,1,0,3,1,19.0,60,0,o,269,49,51
1,2,NAN,4.0,NAN,0.5540823,1,1,1,1,19.0,50,0,p,270,45,55
1,1,1.0,3.0,0.4953426999999999,0.6334622,1,1,3,1,19.0,70,0,o,271,51,49
1,1,1.0,4.0,0.6537284000000001,0.4502358,1,1,1,1,19.0,50,0,p,272,55,45
1,2,NAN,4.0,NAN,0.4365135,1,1,2,1,19.0,60,0,p,273,48,52
1,2,1.0,NAN,0.8525193000000001,1.1016944,1,0,1,1,19.0,70,0,h,274,45,55
1,1,NAN,3.0,NAN,0.4024324,1,0,3,1,19.0,60,0,o,275,51,49
1,1,1.0,2.0,0.8574155999999999,0.5674383000000001,1,1,3,1,19.0,70,0,i,276,51,49
1,1,NAN,4.0,NAN,0.4532175999999999,1,0,2,1,19.0,50,0,p,277,52,48
1,2,NAN,4.0,NAN,0.4190364,1,1,1,1,19.0,60,0,p,278,45,55
1,1,1.0,4.0,0.6856547,0.581947,1,1,2,1,19.0,70,0,p,279,52,48
1,1,1.0,3.0,0.8277875,0.4510467000000001,1,1,1,1,19.0,70,0,o,280,55,45
1,1,1.0,4.0,0.5701168000000001,0.4334479999999999,1,1,2,1,19.0,60,0,p,281,52,48
1,1,1.0,4.0,0.6491452,0.3844692999999999,1,1,1,1,19.0,50,0,p,282,55,45
1,1,1.0,4.0,0.7133009,0.3153972,1,1,3,1,19.0,50,0,p,283,51,49
1,2,NAN,4.0,NAN,0.3710738,1,1,1,1,19.0,50,0,p,284,45,55
1,1,NAN,4.0,NAN,0.3705415,1,0,2,1,19.0,60,0,p,285,52,48
1,2,1.0,2.0,0.68118,0.7317670000000001,1,0,2,1,19.0,50,0,i,286,48,52
1,1,1.0,4.0,0.6892678000000001,0.3484449,1,1,1,1,19.0,60,0,p,287,55,45
1,2,1.0,3.0,0.7073851,0.4174237,1,0,2,1,19.0,50,0,o,288,48,52
1,1,1.0,4.0,0.8907699,0.4648865,1,1,2,1,19.0,70,0,p,289,52,48
1,2,NAN,3.0,NAN,0.4701502999999999,1,1,3,1,19.0,70,0,o,290,49,51
1,1,1.0,2.0,0.8068585,0.4839892,1,1,1,1,19.0,60,0,i,291,55,45
1,2,NAN,4.0,NAN,0.4367845999999999,1,1,1,1,19.0,70,0,p,292,45,55
1,2,NAN,2.0,NAN,0.6533156999999999,1,1,3,1,19.0,60,0,i,293,49,51
1,2,NAN,2.0,NAN,0.9365993,1,1,2,1,19.0,60,0,i,294,48,52
1,1,1.0,3.0,0.5411746999999999,0.6342098,1,1,3,1,19.0,50,0,o,295,51,49
1,2,1.0,3.0,0.392104,0.6822333,1,0,3,1,19.0,50,0,o,296,49,51
1,2,1.0,3.0,0.3362457,0.6316611,1,0,3,1,19.0,60,0,o,297,49,51
1,2,1.0,4.0,0.1252666999999999,0.7144825,1,0,2,1,19.0,70,0,p,298,48,52
1,2,1.0,NAN,0.2414522,0.9838366,1,0,3,1,19.0,70,0,h,299,49,51
1,2,NAN,4.0,NAN,0.4538369,1,1,1,1,19.0,70,0,p,300,45,55
1,1,NAN,4.0,NAN,0.4870260999999999,1,0,2,1,19.0,50,0,p,301,52,48
1,1,1.0,2.0,0.9239971,0.6333743000000001,1,1,3,1,19.0,70,0,i,302,51,49
1,1,1.0,4.0,0.9230922,0.5317331999999999,1,1,3,1,19.0,60,0,p,303,51,49
1,1,1.0,4.0,0.5735145,0.4985502999999999,1,1,1,1,19.0,50,0,p,304,55,45
1,1,1.0,4.0,0.7576885999999999,0.5008108,1,1,1,1,19.0,60,0,p,305,55,45
1,2,NAN,4.0,NAN,0.4373933,1,1,1,1,19.0,50,0,p,306,45,55
1,1,1.0,4.0,0.358452,0.4999087,1,1,1,1,19.0,50,0,p,307,55,45
1,1,1.0,4.0,0.4079026,0.5842936,1,1,2,1,19.0,70,0,p,308,52,48
1,1,1.0,4.0,0.4632611,0.3856930999999999,1,1,3,1,19.0,70,0,p,309,51,49
1,2,1.0,3.0,0.4440909,0.6010196999999999,1,0,2,1,19.0,60,0,o,310,48,52
1,2,1.0,4.0,0.3722847,0.4494451,1,0,2,1,19.0,50,0,p,311,48,52
1,2,NAN,4.0,NAN,0.5037172999999999,1,1,2,1,19.0,70,0,p,312,48,52
1,2,1.0,3.0,0.3533962,0.6339708000000001,1,0,3,1,19.0,70,0,o,313,49,51
1,2,NAN,4.0,NAN,0.5373024000000001,1,1,3,1,19.0,50,0,p,314,49,51
1,2,NAN,4.0,NAN,0.7023811,1,1,1,1,19.0,50,0,p,315,45,55
1,2,NAN,4.0,NAN,0.5195847,1,1,1,1,19.0,70,0,p,316,45,55
1,2,NAN,2.0,NAN,0.6028178000000001,1,1,3,1,19.0,70,0,i,317,49,51
1,2,NAN,3.0,NAN,0.4871510999999999,1,1,2,1,19.0,50,0,o,318,48,52
1,2,NAN,4.0,NAN,0.5038893,1,1,1,1,19.0,60,0,p,319,45,55
1,1,1.0,3.0,0.7238066999999999,0.6841951000000001,1,1,3,1,19.0,50,0,o,320,51,49
1,1,1.0,4.0,0.2895297,0.6325259,1,1,2,1,19.0,70,0,p,321,52,48
1,1,NAN,3.0,NAN,0.4710242999999999,1,0,2,1,19.0,60,0,o,322,52,48
1,2,1.0,4.0,0.472204,0.6014715,1,0,3,1,19.0,60,0,p,323,49,51
1,2,1.0,2.0,0.4308322,0.6008836,1,0,2,1,19.0,60,0,i,324,48,52
1,1,1.0,3.0,0.3061667,0.5338921,1,1,2,1,19.0,60,0,o,325,52,48
1,1,NAN,4.0,NAN,0.4710374,1,0,3,1,19.0,50,0,p,326,51,49
1,1,1.0,4.0,0.6232863000000001,0.5492111,1,1,1,1,19.0,60,0,p,327,55,45
1,2,1.0,3.0,0.4393975,0.6498911999999999,1,0,3,1,19.0,60,0,o,328,49,51
1,1,1.0,4.0,0.3228527,0.4484992999999999,1,1,1,1,19.0,70,0,p,329,55,45
1,1,NAN,4.0,NAN,0.3361854,1,0,3,1,19.0,70,0,p,330,51,49
1,2,NAN,3.0,NAN,0.4359175,1,1,2,1,19.0,50,0,o,331,48,52
1,2,NAN,4.0,NAN,0.3546864,1,1,1,1,19.0,70,0,p,332,45,55
1,2,1.0,4.0,0.3919331,0.4843654,1,0,3,1,19.0,70,0,p,333,49,51
1,1,1.0,4.0,0.3897607999999999,0.3677104,1,1,1,1,19.0,50,0,p,334,55,45
1,1,1.0,3.0,0.4520050999999999,0.3012791999999999,1,1,2,1,19.0,50,0,o,335,52,48
1,2,1.0,3.0,0.5849960999999999,0.4167496,1,0,3,1,19.0,60,0,o,336,49,51
1,1,1.0,2.0,0.6896781999999999,0.4160702999999999,1,1,2,1,19.0,70,0,i,337,52,48
1,2,NAN,4.0,NAN,0.4877090999999999,1,1,1,1,19.0,70,0,p,338,45,55
1,1,1.0,2.0,0.8246918,0.4348776,1,1,3,1,19.0,70,0,i,339,51,49
1,2,1.0,3.0,0.5583996999999999,0.4510619999999999,1,0,2,1,19.0,60,0,o,340,48,52
1,2,1.0,2.0,0.5570113,1.1348098999999998,1,0,3,1,19.0,70,0,i,341,49,51
1,2,1.0,3.0,0.5377009,0.6167020000000001,1,0,2,1,19.0,70,0,o,342,48,52
1,2,1.0,3.0,0.8683436999999999,1.0176451,1,0,2,1,19.0,50,0,o,343,48,52
1,2,NAN,4.0,NAN,0.3702424,1,1,1,1,19.0,50,0,p,344,45,55
1,1,NAN,3.0,NAN,0.319416,1,0,3,1,19.0,50,0,o,345,51,49
1,1,1.0,4.0,0.5565667,0.3503045999999999,1,1,1,1,19.0,70,0,p,346,55,45
1,1,1.0,3.0,0.5247274000000001,0.3514209,1,1,3,1,19.0,50,0,o,347,51,49
1,1,1.0,3.0,0.4126149999999999,0.384422,1,1,2,1,19.0,60,0,o,348,52,48
1,2,1.0,3.0,0.4234141999999999,0.4834103,1,0,2,1,19.0,60,0,o,349,48,52
1,1,1.0,4.0,0.4396832,0.415718,1,1,1,1,19.0,50,0,p,350,55,45
1,2,1.0,4.0,0.3572574,0.3494455999999999,1,0,1,1,19.0,50,0,p,351,45,55
1,1,1.0,4.0,0.2545292999999999,0.3769275,1,1,2,1,19.0,70,0,p,352,52,48
1,2,1.0,3.0,0.2917598,0.4318487,1,0,3,1,19.0,60,0,o,353,49,51
1,1,1.0,2.0,0.4084107999999999,0.3852428,1,1,3,1,19.0,60,0,i,354,51,49
1,1,NAN,3.0,NAN,0.7536786999999999,1,0,1,1,19.0,60,0,o,355,55,45
1,1,1.0,3.0,0.4908242999999999,0.4175777,1,1,1,1,19.0,60,0,o,356,55,45
1,2,NAN,4.0,NAN,0.4363134,1,1,1,1,19.0,60,0,p,357,45,55
1,1,1.0,3.0,0.5754471,0.4687010999999999,1,1,2,1,19.0,60,0,o,358,52,48
1,2,NAN,1.0,NAN,0.9191947,1,1,3,1,19.0,50,0,u,359,49,51
1,2,1.0,NAN,0.3048445999999999,1.2997379,1,0,3,1,19.0,60,0,h,360,49,51
1,2,1.0,3.0,0.3898186999999999,0.5829175999999999,1,0,2,1,19.0,50,0,o,361,48,52
1,2,1.0,2.0,0.3595094,0.5314255,1,0,3,1,19.0,50,0,i,362,49,51
1,2,NAN,4.0,NAN,0.3684788,1,1,3,1,19.0,70,0,p,363,49,51
1,1,NAN,4.0,NAN,0.4536073,1,0,3,1,19.0,70,0,p,364,51,49
1,2,1.0,2.0,0.35911,0.4843525999999999,1,0,2,1,19.0,60,0,i,365,48,52
1,2,1.0,3.0,0.4896220999999999,0.3847658,1,0,2,1,19.0,60,0,o,366,48,52
1,1,1.0,4.0,0.3222994,0.3828722,1,1,1,1,19.0,50,0,p,367,55,45
1,2,NAN,4.0,NAN,0.3368893,1,1,1,1,19.0,70,0,p,368,45,55
1,2,1.0,2.0,0.7752133000000001,0.4446748,1,0,2,1,19.0,70,0,i,369,48,52
1,1,1.0,3.0,0.5472685,0.3674145,1,1,3,1,19.0,50,0,o,370,51,49
1,2,1.0,4.0,0.3880915,0.3505522,1,0,2,1,19.0,50,0,p,371,48,52
1,1,1.0,4.0,0.5231225,0.2516174,1,1,1,1,19.0,70,0,p,372,55,45
1,1,NAN,2.0,NAN,0.6698831000000001,1,0,3,1,19.0,70,0,i,373,51,49
1,1,1.0,4.0,0.4401697,0.364878,1,1,1,1,19.0,60,0,p,374,55,45
1,1,1.0,2.0,0.3182567,0.499947,1,1,2,1,19.0,60,0,i,375,52,48
1,1,1.0,4.0,0.3067059,0.3339614999999999,1,1,3,1,19.0,60,0,p,376,51,49
1,1,1.0,3.0,0.4382737,0.3673422999999999,1,1,3,1,19.0,50,0,o,377,51,49
1,1,NAN,1.0,NAN,0.9705215,1,0,2,1,19.0,70,0,u,378,52,48
1,2,NAN,1.0,NAN,1.7535294,1,1,1,1,19.0,50,0,u,379,45,55
1,1,1.0,3.0,0.4792582,1.3344424,1,1,2,1,19.0,70,0,o,380,52,48
1,2,NAN,4.0,NAN,0.7209148,1,1,1,1,19.0,70,0,p,381,45,55
1,1,1.0,4.0,0.3958313,0.7021662,1,1,1,1,19.0,50,0,p,382,55,45
1,2,1.0,4.0,0.2850430999999999,0.4999176999999999,1,0,3,1,19.0,60,0,p,383,49,51
1,1,1.0,4.0,0.3558792999999999,0.3665233,1,1,1,1,19.0,60,0,p,384,55,45
1,2,NAN,4.0,NAN,0.4688849,1,1,1,1,19.0,50,0,p,385,45,55
1,2,NAN,4.0,NAN,0.5546599,1,1,1,1,19.0,60,0,p,386,45,55
1,1,1.0,3.0,0.7916034000000001,0.5681808,1,1,2,1,19.0,50,0,o,387,52,48
1,1,1.0,4.0,0.3410106,0.4009440999999999,1,1,2,1,19.0,60,0,p,388,52,48
1,2,1.0,4.0,0.3765789,0.4840933,1,0,3,1,19.0,70,0,p,389,49,51
2,2,NAN,4.0,NAN,0.6135036,1,1,3,1,19.0,50,0,p,0,49,51
2,1,NAN,3.0,NAN,0.7967930000000001,1,0,2,1,19.0,70,0,o,1,52,48
2,1,1.0,4.0,0.7019939000000001,0.9773629,1,1,3,1,19.0,70,0,p,2,51,49
2,2,NAN,4.0,NAN,0.3809472,1,1,1,1,19.0,50,0,p,3,45,55
2,1,1.0,4.0,0.7862925000000001,0.4453395,1,1,2,1,19.0,70,0,p,4,52,48
2,2,NAN,3.0,NAN,0.8811766,1,1,1,1,19.0,50,0,o,5,45,55
2,2,NAN,3.0,NAN,0.8643002000000001,1,1,3,1,19.0,70,0,o,6,49,51
2,1,NAN,3.0,NAN,0.3472553,1,0,3,1,19.0,70,0,o,7,51,49
2,2,NAN,3.0,NAN,0.3968602,1,1,3,1,19.0,60,0,o,8,49,51
2,1,NAN,3.0,NAN,0.563185,1,0,3,1,19.0,50,0,o,9,51,49
2,1,1.0,3.0,0.5643946,0.6110642,1,1,1,1,19.0,70,0,o,10,55,45
2,2,NAN,4.0,NAN,0.6815683000000001,1,1,1,1,19.0,70,0,p,11,45,55
2,2,1.0,3.0,0.9203885,0.6289475,1,0,3,1,19.0,70,0,o,12,49,51
2,2,NAN,3.0,NAN,0.3814195999999999,1,1,1,1,19.0,60,0,o,13,45,55
2,1,1.0,3.0,0.5912335,0.4441882,1,1,1,1,19.0,60,0,o,14,55,45
2,1,1.0,3.0,0.5751093,0.3614954,1,1,2,1,19.0,60,0,o,15,52,48
2,1,NAN,3.0,NAN,0.3636865999999999,1,0,1,1,19.0,50,0,o,16,55,45
2,2,NAN,3.0,NAN,0.3476774,1,1,2,1,19.0,70,0,o,17,48,52
2,1,NAN,3.0,NAN,0.3811495,1,0,1,1,19.0,60,0,o,18,55,45
2,2,1.0,3.0,0.4558629,0.3959517,1,0,2,1,19.0,60,0,o,19,48,52
2,2,NAN,3.0,NAN,0.4484582,1,1,3,1,19.0,60,0,o,20,49,51
2,2,NAN,3.0,NAN,0.3815394,1,1,2,1,19.0,60,0,o,21,48,52
2,1,NAN,3.0,NAN,0.4132398,1,0,3,1,19.0,60,0,o,22,51,49
2,1,NAN,3.0,NAN,0.3140373,1,0,3,1,19.0,50,0,o,23,51,49
2,1,1.0,3.0,0.6190249,0.5776661999999999,1,1,2,1,19.0,50,0,o,24,52,48
2,2,NAN,3.0,NAN,0.3149005,1,1,2,1,19.0,50,0,o,25,48,52
2,2,NAN,3.0,NAN,0.3633064,1,1,2,1,19.0,50,0,o,26,48,52
2,1,1.0,3.0,0.8703603000000001,0.5623185,1,1,2,1,19.0,60,0,o,27,52,48
2,2,NAN,3.0,NAN,0.4015511,1,1,1,1,19.0,70,0,o,28,45,55
2,1,1.0,3.0,0.9361392,0.5812470000000001,1,1,1,1,19.0,50,0,o,29,55,45
2,1,NAN,3.0,NAN,1.1314719,1,0,2,1,19.0,60,0,o,30,52,48
2,1,1.0,3.0,0.5874166000000001,0.3606524,1,1,2,1,19.0,70,0,o,31,52,48
2,1,1.0,3.0,0.5074441,0.2963659999999999,1,1,1,1,19.0,50,0,o,32,55,45
2,2,NAN,3.0,NAN,0.3175462999999999,1,1,3,1,19.0,60,0,o,33,49,51
2,1,NAN,3.0,NAN,0.397949,1,0,2,1,19.0,70,0,o,34,52,48
2,2,NAN,3.0,NAN,0.384729,1,1,3,1,19.0,70,0,o,35,49,51
2,2,NAN,3.0,NAN,0.3310033,1,1,3,1,19.0,70,0,o,36,49,51
2,2,NAN,3.0,NAN,0.3330992,1,1,1,1,19.0,60,0,o,37,45,55
2,1,1.0,3.0,0.6222079,0.4467875,1,1,3,1,19.0,60,0,o,38,51,49
2,2,NAN,3.0,NAN,0.3323189,1,1,1,1,19.0,50,0,o,39,45,55
2,2,1.0,3.0,0.7875749,0.3425487,1,0,3,1,19.0,50,0,o,40,49,51
2,1,NAN,3.0,NAN,0.5313564000000001,1,0,1,1,19.0,50,0,o,41,55,45
2,1,1.0,3.0,0.7192443000000001,0.5946887,1,1,1,1,19.0,70,0,o,42,55,45
2,2,NAN,3.0,NAN,0.4152880999999999,1,1,3,1,19.0,60,0,o,43,49,51
2,1,1.0,3.0,0.8044918000000001,0.4626778,1,1,2,1,19.0,60,0,o,44,52,48
2,2,NAN,2.0,NAN,1.5683508999999998,1,1,2,1,19.0,70,0,i,45,48,52
2,2,1.0,NAN,0.7543771,1.6306942,1,0,1,1,19.0,50,0,h,46,45,55
2,2,NAN,3.0,NAN,1.1846883999999998,1,1,1,1,19.0,70,0,o,47,45,55
2,1,1.0,3.0,0.7212187,0.4803013,1,1,1,1,19.0,60,0,o,48,55,45
2,2,NAN,3.0,NAN,0.5326466999999999,1,1,2,1,19.0,60,0,o,49,48,52
2,1,1.0,3.0,0.7526401,0.4960536,1,1,3,1,19.0,50,0,o,50,51,49
2,1,1.0,3.0,0.6698656,0.3631302999999999,1,1,3,1,19.0,70,0,o,51,51,49
2,2,NAN,3.0,NAN,0.2997136,1,1,2,1,19.0,50,0,o,52,48,52
2,2,NAN,3.0,NAN,0.3843484,1,1,2,1,19.0,50,0,o,53,48,52
2,2,NAN,3.0,NAN,0.4319444,1,1,2,1,19.0,60,0,o,54,48,52
2,1,1.0,3.0,0.4528038,0.4621862,1,1,3,1,19.0,50,0,o,55,51,49
2,2,NAN,3.0,NAN,0.3814752,1,1,1,1,19.0,70,0,o,56,45,55
2,1,NAN,3.0,NAN,0.396951,1,0,3,1,19.0,70,0,o,57,51,49
2,1,1.0,3.0,0.851864,0.4784964,1,1,1,1,19.0,60,0,o,58,55,45
2,1,1.0,3.0,0.5837270999999999,0.4983924,1,1,2,1,19.0,50,0,o,59,52,48
2,2,NAN,3.0,NAN,0.9977822,1,1,2,1,19.0,60,0,o,60,48,52
2,2,NAN,3.0,NAN,0.3485993,1,1,2,1,19.0,50,0,o,61,48,52
2,2,NAN,3.0,NAN,0.3148164,1,1,2,1,19.0,70,0,o,62,48,52
2,1,NAN,3.0,NAN,0.1507984,1,0,2,1,19.0,60,0,o,63,52,48
2,2,NAN,3.0,NAN,0.3156100999999999,1,1,1,1,19.0,50,0,o,64,45,55
2,1,NAN,3.0,NAN,0.5316913000000001,1,0,3,1,19.0,50,0,o,65,51,49
2,1,NAN,3.0,NAN,0.3808139,1,0,1,1,19.0,60,0,o,66,55,45
2,1,1.0,3.0,0.2683412,0.494432,1,1,2,1,19.0,70,0,o,67,52,48
2,1,1.0,3.0,0.5043746,0.3470756,1,1,3,1,19.0,70,0,o,68,51,49
2,1,1.0,3.0,0.464475,0.3816477,1,1,2,1,19.0,50,0,o,69,52,48
2,1,1.0,3.0,0.7527833,0.3628991,1,1,2,1,19.0,60,0,o,70,52,48
2,2,NAN,3.0,NAN,0.332036,1,1,2,1,19.0,60,0,o,71,48,52
2,2,1.0,3.0,0.5542391,0.3470547,1,0,3,1,19.0,60,0,o,72,49,51
2,2,1.0,4.0,0.6711659000000001,0.7962776999999999,1,0,3,1,19.0,50,0,p,73,49,51
2,2,1.0,3.0,0.8527212,0.3294362999999999,1,0,3,1,19.0,70,0,o,74,49,51
2,2,NAN,3.0,NAN,0.3629078,1,1,1,1,19.0,70,0,o,75,45,55
2,1,1.0,3.0,0.6069174,0.3964801,1,1,1,1,19.0,60,0,o,76,55,45
2,2,NAN,3.0,NAN,0.3187264,1,1,3,1,19.0,70,0,o,77,49,51
2,2,NAN,4.0,NAN,0.4178680999999999,1,1,1,1,19.0,60,0,p,78,45,55
2,2,NAN,3.0,NAN,0.5500168000000001,1,1,1,1,19.0,70,0,o,79,45,55
2,2,1.0,3.0,0.7353171,0.3796714,1,0,3,1,19.0,60,0,o,80,49,51
2,1,NAN,3.0,NAN,0.0790303,1,0,3,1,19.0,50,0,o,81,51,49
2,2,1.0,3.0,0.58009,0.3451274,1,0,2,1,19.0,50,0,o,82,48,52
2,1,NAN,3.0,NAN,0.7354321999999999,1,0,3,1,19.0,60,0,o,83,51,49
2,1,1.0,3.0,0.5695509,0.4479566,1,1,2,1,19.0,70,0,o,84,52,48
2,1,1.0,3.0,0.3867085,0.3796299,1,1,1,1,19.0,50,0,o,85,55,45
2,1,1.0,3.0,0.4254715,0.3292679,1,1,1,1,19.0,70,0,o,86,55,45
2,1,1.0,3.0,0.3748085,0.3468064,1,1,1,1,19.0,50,0,o,87,55,45
2,2,NAN,3.0,NAN,0.6160401999999999,1,1,1,1,19.0,50,0,o,88,45,55
2,1,1.0,3.0,0.5531256999999999,0.2125867,1,1,3,1,19.0,70,0,o,89,51,49
2,2,NAN,3.0,NAN,0.3980778,1,1,2,1,19.0,50,0,o,90,48,52
2,1,NAN,3.0,NAN,0.4840059,1,0,3,1,19.0,60,0,o,91,51,49
2,1,1.0,3.0,0.5220229000000001,0.3980428,1,1,1,1,19.0,50,0,o,92,55,45
2,2,NAN,4.0,NAN,0.3022411,1,1,1,1,19.0,50,0,p,93,45,55
2,1,1.0,3.0,0.8346359,0.3636354,1,1,3,1,19.0,70,0,o,94,51,49
2,2,NAN,4.0,NAN,0.3811978,1,1,3,1,19.0,70,0,p,95,49,51
2,2,NAN,3.0,NAN,0.2811742,1,1,3,1,19.0,60,0,o,96,49,51
2,2,NAN,3.0,NAN,0.3318066,1,1,1,1,19.0,70,0,o,97,45,55
2,2,1.0,3.0,0.8712274999999999,0.380064,1,0,2,1,19.0,60,0,o,98,48,52
2,2,NAN,3.0,NAN,0.2848914,1,1,1,1,19.0,70,0,o,99,45,55
2,1,1.0,3.0,0.4218654999999999,0.3803208,1,1,2,1,19.0,70,0,o,100,52,48
2,1,NAN,3.0,NAN,1.0485608,1,0,2,1,19.0,70,0,o,101,52,48
2,1,1.0,3.0,0.5553949,0.3287797,1,1,3,1,19.0,70,0,o,102,51,49
2,2,1.0,3.0,0.5225862,0.3789113,1,0,2,1,19.0,60,0,o,103,48,52
2,1,1.0,3.0,0.6210226,0.3627057,1,1,2,1,19.0,60,0,o,104,52,48
2,2,NAN,3.0,NAN,0.3678622,1,1,1,1,19.0,60,0,o,105,45,55
2,1,1.0,3.0,0.4791514,0.3794739,1,1,1,1,19.0,60,0,o,106,55,45
2,1,1.0,3.0,0.3814835,0.363235,1,1,2,1,19.0,60,0,o,107,52,48
2,1,1.0,3.0,0.4890484999999999,0.4144554,1,1,1,1,19.0,60,0,o,108,55,45
2,2,NAN,2.0,NAN,1.7851294999999998,1,1,2,1,19.0,50,0,i,109,48,52
2,1,1.0,3.0,0.5719533,0.3798905,1,1,3,1,19.0,50,0,o,110,51,49
2,1,1.0,3.0,0.6456304,0.8960435999999999,1,1,2,1,19.0,50,0,o,111,52,48
2,1,1.0,3.0,0.4390471999999999,0.3122154,1,1,3,1,19.0,50,0,o,112,51,49
2,2,1.0,3.0,0.4651786,0.3118295,1,0,3,1,19.0,60,0,o,113,49,51
2,2,NAN,3.0,NAN,0.815682,1,1,2,1,19.0,70,0,o,114,48,52
2,2,NAN,3.0,NAN,0.4007587,1,1,3,1,19.0,50,0,o,115,49,51
2,1,1.0,3.0,0.4770854,0.3966049,1,1,1,1,19.0,50,0,o,116,55,45
2,2,NAN,3.0,NAN,0.8840406,1,1,1,1,19.0,50,0,o,117,45,55
2,1,1.0,3.0,0.4846215999999999,0.3621705,1,1,1,1,19.0,70,0,o,118,55,45
2,2,1.0,3.0,0.5429668000000001,0.3290701,1,0,3,1,19.0,70,0,o,119,49,51
2,2,1.0,3.0,0.5212985,0.4628508,1,0,3,1,19.0,60,0,o,120,49,51
2,1,1.0,3.0,0.2968250999999999,0.3059861,1,1,2,1,19.0,60,0,o,121,52,48
2,1,1.0,3.0,0.2877214,0.279913,1,1,1,1,19.0,60,0,o,122,55,45
2,1,1.0,3.0,0.4229188,0.2633025,1,1,2,1,19.0,50,0,o,123,52,48
2,1,1.0,3.0,0.2959007,0.2960842,1,1,1,1,19.0,50,0,o,124,55,45
2,1,1.0,3.0,0.3764224,0.2643535999999999,1,1,2,1,19.0,70,0,o,125,52,48
2,1,1.0,3.0,0.4718174,0.2127002999999999,1,1,3,1,19.0,60,0,o,126,51,49
2,1,1.0,3.0,0.3815651,0.2422114,1,1,1,1,19.0,50,0,o,127,55,45
2,1,1.0,3.0,0.2541244,0.2621952,1,1,2,1,19.0,60,0,o,128,52,48
2,2,NAN,3.0,NAN,0.3470905999999999,1,1,3,1,19.0,50,0,o,129,49,51
2,2,NAN,3.0,NAN,0.3840653,1,1,1,1,19.0,70,0,o,130,45,55
2,1,1.0,3.0,0.5783481,0.2635119999999999,1,1,3,1,19.0,50,0,o,131,51,49
2,1,1.0,3.0,0.3971790999999999,0.2091242,1,1,1,1,19.0,60,0,o,132,55,45
2,1,1.0,3.0,0.2875696,0.2958829,1,1,3,1,19.0,50,0,o,133,51,49
2,1,1.0,3.0,0.3081862999999999,0.2625124,1,1,2,1,19.0,70,0,o,134,52,48
2,2,1.0,3.0,0.197578,0.3127489,1,0,1,1,19.0,60,0,o,135,45,55
2,2,NAN,3.0,NAN,0.3815022999999999,1,1,3,1,19.0,60,0,o,136,49,51
2,2,NAN,3.0,NAN,0.3302759,1,1,3,1,19.0,70,0,o,137,49,51
2,2,1.0,3.0,0.4876008,0.3124899,1,0,3,1,19.0,70,0,o,138,49,51
2,2,NAN,3.0,NAN,0.5007798,1,1,1,1,19.0,50,0,o,139,45,55
2,2,NAN,3.0,NAN,0.0648551,1,1,2,1,19.0,60,0,o,140,48,52
2,1,1.0,3.0,0.3632295,0.3655834,1,1,3,1,19.0,70,0,o,141,51,49
2,2,NAN,3.0,NAN,0.3147104,1,1,1,1,19.0,50,0,o,142,45,55
2,1,1.0,3.0,0.6541614,0.3621203,1,1,3,1,19.0,70,0,o,143,51,49
2,2,NAN,3.0,NAN,0.3337598,1,1,2,1,19.0,60,0,o,144,48,52
2,2,NAN,3.0,NAN,0.3499125,1,1,2,1,19.0,50,0,o,145,48,52
2,2,NAN,3.0,NAN,0.4317273,1,1,2,1,19.0,70,0,o,146,48,52
2,2,NAN,3.0,NAN,0.3841352,1,1,1,1,19.0,70,0,o,147,45,55
2,2,NAN,3.0,NAN,0.3315555,1,1,2,1,19.0,50,0,o,148,48,52
2,1,1.0,3.0,0.5078779,0.4123670999999999,1,1,1,1,19.0,70,0,o,149,55,45
2,1,1.0,3.0,0.7549609,0.3457262,1,1,1,1,19.0,60,0,o,150,55,45
2,1,1.0,3.0,0.3853607999999999,0.2942217,1,1,2,1,19.0,60,0,o,151,52,48
2,1,1.0,3.0,0.4195063,0.2457828,1,1,2,1,19.0,60,0,o,152,52,48
2,2,1.0,3.0,0.7699069000000001,0.2956138,1,0,2,1,19.0,50,0,o,153,48,52
2,2,1.0,3.0,0.2291107,0.279444,1,0,2,1,19.0,50,0,o,154,48,52
2,2,1.0,3.0,0.2442224999999999,0.2737057,1,0,3,1,19.0,60,0,o,155,49,51
2,1,1.0,3.0,0.2227634,0.2975948,1,1,1,1,19.0,60,0,o,156,55,45
2,2,1.0,3.0,0.3725928,0.2127108999999999,1,0,2,1,19.0,70,0,o,157,48,52
2,2,1.0,3.0,0.3227915999999999,0.2795987,1,0,2,1,19.0,60,0,o,158,48,52
2,1,1.0,3.0,0.3213798,0.2464626,1,1,3,1,19.0,70,0,o,159,51,49
2,2,1.0,3.0,0.1544912999999999,0.3126559,1,0,1,1,19.0,60,0,o,160,45,55
2,1,1.0,3.0,0.3356104,0.2453456,1,1,1,1,19.0,70,0,o,161,55,45
2,2,1.0,3.0,0.4201265999999999,0.279408,1,0,1,1,19.0,50,0,o,162,45,55
2,2,1.0,3.0,0.3386514,0.2466989999999999,1,0,3,1,19.0,50,0,o,163,49,51
2,1,1.0,3.0,0.1365597,0.3126395999999999,1,1,3,1,19.0,60,0,o,164,51,49
2,1,1.0,3.0,0.3202026,0.2634149,1,1,3,1,19.0,50,0,o,165,51,49
2,2,NAN,3.0,NAN,0.4483342999999999,1,1,3,1,19.0,70,0,o,166,49,51
2,2,NAN,3.0,NAN,0.3669087,1,1,2,1,19.0,60,0,o,167,48,52
2,2,NAN,3.0,NAN,0.399632,1,1,3,1,19.0,70,0,o,168,49,51
2,1,NAN,3.0,NAN,0.412929,1,0,2,1,19.0,70,0,o,169,52,48
2,2,NAN,3.0,NAN,0.3308779,1,1,1,1,19.0,70,0,o,170,45,55
2,1,1.0,3.0,0.5188607,0.3812995,1,1,1,1,19.0,50,0,o,171,55,45
2,2,NAN,3.0,NAN,0.3173348,1,1,3,1,19.0,60,0,o,172,49,51
2,1,1.0,3.0,0.4236034000000001,0.4117342,1,1,2,1,19.0,50,0,o,173,52,48
2,2,NAN,3.0,NAN,0.3315013,1,1,1,1,19.0,70,0,o,174,45,55
2,1,1.0,3.0,0.5045777,0.4295742999999999,1,1,3,1,19.0,70,0,o,175,51,49
2,1,NAN,3.0,NAN,0.3160787,1,0,1,1,19.0,50,0,o,176,55,45
2,1,1.0,3.0,0.5515469,0.4791849,1,1,2,1,19.0,70,0,o,177,52,48
2,1,1.0,3.0,0.5891075,0.4280609999999999,1,1,3,1,19.0,50,0,o,178,51,49
2,2,NAN,3.0,NAN,0.2823604,1,1,1,1,19.0,50,0,o,179,45,55
2,2,NAN,3.0,NAN,1.1690583,1,1,1,1,19.0,70,0,o,180,45,55
2,2,NAN,3.0,NAN,0.7182734000000001,1,1,2,1,19.0,60,0,o,181,48,52
2,1,1.0,3.0,0.564854,0.3632967,1,1,2,1,19.0,70,0,o,182,52,48
2,1,1.0,3.0,0.5031973,0.3956646,1,1,2,1,19.0,50,0,o,183,52,48
2,2,NAN,3.0,NAN,0.3506776,1,1,3,1,19.0,60,0,o,184,49,51
2,2,1.0,3.0,0.5376058000000001,0.2966841,1,0,3,1,19.0,50,0,o,185,49,51
2,2,NAN,3.0,NAN,0.3149628,1,1,1,1,19.0,50,0,o,186,45,55
2,1,NAN,3.0,NAN,0.2823145999999999,1,0,3,1,19.0,50,0,o,187,51,49
2,2,1.0,3.0,0.3290616,0.3477814,1,0,2,1,19.0,50,0,o,188,48,52
2,2,NAN,4.0,NAN,0.3843957,1,1,1,1,19.0,60,0,p,189,45,55
2,2,NAN,4.0,NAN,0.3485759,1,1,2,1,19.0,50,0,p,190,48,52
2,1,1.0,3.0,0.4343313,0.3120189,1,1,2,1,19.0,60,0,o,191,52,48
2,1,1.0,3.0,0.3985896,0.2947907999999999,1,1,1,1,19.0,50,0,o,192,55,45
2,1,1.0,3.0,0.3381477,0.2584612,1,1,3,1,19.0,70,0,o,193,51,49
2,1,1.0,3.0,0.3021023,0.3292915,1,1,1,1,19.0,60,0,o,194,55,45
2,1,1.0,3.0,0.2359969999999999,0.3958494999999999,1,1,3,1,19.0,60,0,o,195,51,49
2,2,NAN,3.0,NAN,0.318684,1,1,2,1,19.0,70,0,o,196,48,52
2,1,NAN,3.0,NAN,0.3343011,1,0,2,1,19.0,60,0,o,197,52,48
2,2,NAN,3.0,NAN,0.299706,1,1,1,1,19.0,70,0,o,198,45,55
2,1,1.0,3.0,0.5184294,0.3954329,1,1,2,1,19.0,70,0,o,199,52,48
2,2,NAN,3.0,NAN,0.1482952,1,1,2,1,19.0,60,0,o,200,48,52
2,1,1.0,3.0,0.4213872999999999,0.4799357,1,1,1,1,19.0,70,0,o,201,55,45
2,1,1.0,3.0,0.3716969,0.3959074999999999,1,1,1,1,19.0,60,0,o,202,55,45
2,1,1.0,3.0,0.7580819000000001,0.3806901,1,1,1,1,19.0,50,0,o,203,55,45
2,2,NAN,3.0,NAN,0.2984247,1,1,3,1,19.0,70,0,o,204,49,51
2,2,NAN,3.0,NAN,0.3815693,1,1,1,1,19.0,50,0,o,205,45,55
2,2,NAN,3.0,NAN,0.0001182,1,1,3,1,19.0,70,0,o,206,49,51
2,1,1.0,3.0,0.4719367,0.4310627999999999,1,1,3,1,19.0,70,0,o,207,51,49
2,2,NAN,3.0,NAN,0.2006206,1,1,3,1,19.0,60,0,o,208,49,51
2,1,1.0,3.0,0.4459369000000001,0.4140746,1,1,3,1,19.0,50,0,o,209,51,49
2,2,NAN,3.0,NAN,1.0809635,1,1,3,1,19.0,60,0,o,210,49,51
2,2,NAN,3.0,NAN,0.2998845,1,1,3,1,19.0,50,0,o,211,49,51
2,1,1.0,3.0,0.1725313999999999,0.8629252000000001,1,1,2,1,19.0,50,0,o,212,52,48
2,1,NAN,3.0,NAN,0.5519672,1,0,3,1,19.0,50,0,o,213,51,49
2,2,NAN,3.0,NAN,0.3177624,1,1,3,1,19.0,70,0,o,214,49,51
2,1,NAN,3.0,NAN,0.5170152,1,0,2,1,19.0,70,0,o,215,52,48
2,2,NAN,3.0,NAN,0.2847365,1,1,3,1,19.0,70,0,o,216,49,51
2,2,NAN,3.0,NAN,0.3158307,1,1,2,1,19.0,70,0,o,217,48,52
2,2,NAN,3.0,NAN,0.2819939,1,1,1,1,19.0,60,0,o,218,45,55
2,2,NAN,3.0,NAN,0.2852912,1,1,1,1,19.0,70,0,o,219,45,55
2,1,NAN,3.0,NAN,0.2024377,1,0,2,1,19.0,70,0,o,220,52,48
2,1,1.0,3.0,0.5043139,0.4318037,1,1,1,1,19.0,70,0,o,221,55,45
2,2,NAN,3.0,NAN,0.1350215,1,1,1,1,19.0,50,0,o,222,45,55
2,2,NAN,3.0,NAN,0.2346337999999999,1,1,1,1,19.0,50,0,o,223,45,55
2,2,1.0,3.0,0.4436904,0.3921972999999999,1,0,2,1,19.0,50,0,o,224,48,52
2,1,1.0,3.0,0.3872555,0.4136254,1,1,1,1,19.0,50,0,o,225,55,45
2,1,1.0,3.0,0.4037675,0.3292074,1,1,3,1,19.0,50,0,o,226,51,49
2,2,NAN,3.0,NAN,0.1334925,1,1,3,1,19.0,60,0,o,227,49,51
2,2,NAN,3.0,NAN,0.3844182,1,1,1,1,19.0,70,0,o,228,45,55
2,1,1.0,3.0,0.3885973,0.398328,1,1,1,1,19.0,60,0,o,229,55,45
2,1,NAN,3.0,NAN,0.2016022999999999,1,0,3,1,19.0,70,0,o,230,51,49
2,1,1.0,3.0,0.4313710999999999,0.4310236,1,1,1,1,19.0,50,0,o,231,55,45
2,2,NAN,3.0,NAN,0.2991158,1,1,2,1,19.0,60,0,o,232,48,52
2,2,NAN,3.0,NAN,0.3174309,1,1,2,1,19.0,60,0,o,233,48,52
2,1,1.0,3.0,0.5723651999999999,0.4949305,1,1,3,1,19.0,60,0,o,234,51,49
2,1,NAN,3.0,NAN,0.5648236999999999,1,0,2,1,19.0,60,0,o,235,52,48
2,1,1.0,3.0,0.5188872,0.4315481,1,1,1,1,19.0,60,0,o,236,55,45
2,2,NAN,3.0,NAN,0.3183267,1,1,2,1,19.0,50,0,o,237,48,52
2,1,1.0,3.0,0.4387478,0.4451699,1,1,2,1,19.0,60,0,o,238,52,48
2,1,1.0,3.0,0.5199367,0.4137749,1,1,3,1,19.0,70,0,o,239,51,49
2,2,NAN,3.0,NAN,0.4338257,1,1,3,1,19.0,70,0,o,240,49,51
2,1,NAN,3.0,NAN,0.1177216,1,0,3,1,19.0,50,0,o,241,51,49
2,2,NAN,4.0,NAN,0.2675066,1,1,1,1,19.0,50,0,p,242,45,55
2,2,NAN,3.0,NAN,0.1345647999999999,1,1,1,1,19.0,70,0,o,243,45,55
2,1,NAN,3.0,NAN,0.4515643,1,0,2,1,19.0,70,0,o,244,52,48
2,2,NAN,3.0,NAN,0.7180187,1,1,3,1,19.0,60,0,o,245,49,51
2,2,NAN,3.0,NAN,0.2512188,1,1,2,1,19.0,60,0,o,246,48,52
2,1,NAN,3.0,NAN,0.2511744,1,0,3,1,19.0,70,0,o,247,51,49
2,2,NAN,NAN,NAN,1.501443,1,1,2,1,19.0,50,0,h,248,48,52
2,1,NAN,3.0,NAN,0.6007918999999999,1,0,3,1,19.0,50,0,o,249,51,49
2,2,NAN,3.0,NAN,0.3339647999999999,1,1,2,1,19.0,50,0,o,250,48,52
2,1,1.0,3.0,0.3543699999999999,0.3963019,1,1,1,1,19.0,50,0,o,251,55,45
2,1,NAN,3.0,NAN,0.2984742,1,0,3,1,19.0,70,0,o,252,51,49
2,1,1.0,3.0,0.4193054,0.3289484,1,1,3,1,19.0,60,0,o,253,51,49
2,2,NAN,3.0,NAN,0.1830889,1,1,1,1,19.0,60,0,o,254,45,55
2,1,1.0,3.0,0.2251827,0.2629664,1,1,1,1,19.0,60,0,o,255,55,45
2,1,1.0,3.0,0.4028492,0.2143292,1,1,2,1,19.0,60,0,o,256,52,48
2,2,NAN,3.0,NAN,0.5008239000000001,1,1,1,1,19.0,70,0,o,257,45,55
2,2,NAN,3.0,NAN,0.300489,1,1,2,1,19.0,60,0,o,258,48,52
2,1,1.0,3.0,0.3558153,0.2815919,1,1,2,1,19.0,50,0,o,259,52,48
2,2,NAN,4.0,NAN,0.282355,1,1,3,1,19.0,50,0,p,260,49,51
2,2,1.0,3.0,0.6051769,0.3462207,1,0,3,1,19.0,60,0,o,261,49,51
2,2,NAN,3.0,NAN,0.6673765,1,1,1,1,19.0,50,0,o,262,45,55
2,1,1.0,3.0,0.3561264,0.3133176,1,1,2,1,19.0,70,0,o,263,52,48
2,1,1.0,3.0,0.3162942,0.2137201,1,1,1,1,19.0,50,0,o,264,55,45
2,2,1.0,3.0,0.1541249,0.2635194,1,0,2,1,19.0,70,0,o,265,48,52
2,2,1.0,3.0,0.1508735,0.313313,1,0,3,1,19.0,70,0,o,266,49,51
2,1,NAN,3.0,NAN,0.3855399,1,0,2,1,19.0,60,0,o,267,52,48
2,1,1.0,3.0,0.3198835,0.3107031,1,1,1,1,19.0,70,0,o,268,55,45
2,1,1.0,4.0,0.3230765,0.3627283,1,1,1,1,19.0,60,0,p,269,55,45
2,1,NAN,3.0,NAN,0.2511711,1,0,2,1,19.0,70,0,o,270,52,48
2,2,NAN,3.0,NAN,0.2847982,1,1,3,1,19.0,60,0,o,271,49,51
2,2,NAN,3.0,NAN,0.0003989,1,1,3,1,19.0,70,0,o,272,49,51
2,1,1.0,3.0,0.4148877,0.3120333,1,1,1,1,19.0,60,0,o,273,55,45
2,2,1.0,3.0,0.3380957,0.2467340999999999,1,0,2,1,19.0,60,0,o,274,48,52
2,2,NAN,3.0,NAN,0.4676352,1,1,1,1,19.0,50,0,o,275,45,55
2,2,NAN,3.0,NAN,0.2846878,1,1,3,1,19.0,60,0,o,276,49,51
2,2,NAN,3.0,NAN,0.2351796,1,1,2,1,19.0,60,0,o,277,48,52
2,1,1.0,3.0,0.4535579,0.3635864,1,1,1,1,19.0,50,0,o,278,55,45
2,2,1.0,3.0,0.4307422999999999,0.2635212,1,0,2,1,19.0,50,0,o,279,48,52
2,2,NAN,3.0,NAN,0.4342265,1,1,3,1,19.0,50,0,o,280,49,51
2,2,NAN,4.0,NAN,0.3801447,1,1,1,1,19.0,60,0,p,281,45,55
2,1,1.0,3.0,0.4205513,0.3110505,1,1,2,1,19.0,70,0,o,282,52,48
2,1,1.0,3.0,0.3153629,0.3318349,1,1,3,1,19.0,70,0,o,283,51,49
2,1,NAN,3.0,NAN,0.2676970999999999,1,0,3,1,19.0,50,0,o,284,51,49
2,2,NAN,3.0,NAN,0.285355,1,1,2,1,19.0,70,0,o,285,48,52
2,2,NAN,3.0,NAN,0.2842873,1,1,2,1,19.0,50,0,o,286,48,52
2,2,NAN,4.0,NAN,0.2847369999999999,1,1,1,1,19.0,50,0,p,287,45,55
2,2,NAN,3.0,NAN,0.2507405,1,1,1,1,19.0,70,0,o,288,45,55
2,2,NAN,3.0,NAN,0.167803,1,1,1,1,19.0,70,0,o,289,45,55
2,1,1.0,3.0,0.4396564,0.3616902,1,1,1,1,19.0,70,0,o,290,55,45
2,1,NAN,3.0,NAN,0.2321389999999999,1,0,3,1,19.0,50,0,o,291,51,49
2,2,1.0,3.0,0.5407133000000001,0.3126361,1,0,3,1,19.0,70,0,o,292,49,51
2,1,1.0,3.0,0.6484885,0.3316569,1,1,3,1,19.0,70,0,o,293,51,49
2,1,1.0,3.0,0.4048879,0.2799644,1,1,1,1,19.0,50,0,o,294,55,45
2,1,NAN,3.0,NAN,0.2005735,1,0,3,1,19.0,60,0,o,295,51,49
2,1,1.0,3.0,0.2726662,0.2971215,1,1,1,1,19.0,60,0,o,296,55,45
2,1,1.0,3.0,0.5031175,0.2803039,1,1,2,1,19.0,50,0,o,297,52,48
2,1,1.0,3.0,0.3724699999999999,0.2299397999999999,1,1,2,1,19.0,60,0,o,298,52,48
2,1,1.0,3.0,0.2382771,0.2630727,1,1,2,1,19.0,60,0,o,299,52,48
2,1,1.0,3.0,0.5544679,0.364797,1,1,1,1,19.0,60,0,o,300,55,45
2,2,NAN,3.0,NAN,0.3358699,1,1,3,1,19.0,60,0,o,301,49,51
2,2,NAN,3.0,NAN,0.3172937,1,1,3,1,19.0,50,0,o,302,49,51
2,2,NAN,3.0,NAN,0.2679356,1,1,1,1,19.0,50,0,o,303,45,55
2,2,1.0,3.0,0.3706220999999999,0.3285679999999999,1,0,3,1,19.0,60,0,o,304,49,51
2,2,NAN,3.0,NAN,0.400989,1,1,2,1,19.0,50,0,o,305,48,52
2,1,1.0,3.0,0.4535083,0.2966598,1,1,3,1,19.0,70,0,o,306,51,49
2,1,1.0,3.0,0.4348624,0.2642519,1,1,3,1,19.0,50,0,o,307,51,49
2,2,NAN,3.0,NAN,0.1348348,1,1,1,1,19.0,70,0,o,308,45,55
2,1,1.0,3.0,0.343995,0.2315932,1,1,2,1,19.0,60,0,o,309,52,48
2,1,1.0,3.0,0.5051306,0.2143887,1,1,2,1,19.0,70,0,o,310,52,48
2,1,NAN,3.0,NAN,0.3341941,1,0,3,1,19.0,70,0,o,311,51,49
2,1,1.0,3.0,0.4527654,0.2617492,1,1,2,1,19.0,70,0,o,312,52,48
2,2,1.0,3.0,0.485084,0.6285519,1,0,2,1,19.0,70,0,o,313,48,52
2,2,NAN,3.0,NAN,0.2335082,1,1,1,1,19.0,70,0,o,314,45,55
2,2,1.0,3.0,0.6903516,0.4637289,1,0,2,1,19.0,60,0,o,315,48,52
2,2,NAN,3.0,NAN,0.2176592999999999,1,1,1,1,19.0,50,0,o,316,45,55
2,1,1.0,3.0,0.386978,0.3149833,1,1,1,1,19.0,50,0,o,317,55,45
2,2,1.0,3.0,0.4053859,0.2810107999999999,1,0,2,1,19.0,60,0,o,318,48,52
2,1,1.0,3.0,0.2692830999999999,0.2974234,1,1,1,1,19.0,70,0,o,319,55,45
2,1,1.0,3.0,0.3217492,0.2979112,1,1,3,1,19.0,50,0,o,320,51,49
2,1,1.0,3.0,0.1874718,0.3121279,1,1,3,1,19.0,60,0,o,321,51,49
2,2,NAN,3.0,NAN,0.3172615,1,1,1,1,19.0,60,0,o,322,45,55
2,2,NAN,3.0,NAN,0.2845619,1,1,3,1,19.0,70,0,o,323,49,51
2,1,1.0,3.0,0.4529342,0.3308475,1,1,2,1,19.0,50,0,o,324,52,48
2,1,1.0,3.0,0.6463831,0.2645134,1,1,1,1,19.0,60,0,o,325,55,45
2,1,1.0,3.0,0.3722492,0.2808507,1,1,2,1,19.0,60,0,o,326,52,48
2,2,NAN,3.0,NAN,0.2843623,1,1,2,1,19.0,50,0,o,327,48,52
2,2,1.0,3.0,0.5190094,0.2308567,1,0,3,1,19.0,70,0,o,328,49,51
2,1,1.0,3.0,0.4362161,0.2958013,1,1,1,1,19.0,50,0,o,329,55,45
2,1,1.0,3.0,0.3546419,0.3137779,1,1,1,1,19.0,70,0,o,330,55,45
2,2,1.0,3.0,0.3203968,0.296358,1,0,2,1,19.0,50,0,o,331,48,52
2,1,1.0,3.0,0.4013257,0.2488871,1,1,1,1,19.0,60,0,o,332,55,45
2,1,1.0,NAN,0.44609,1.4979133999999998,1,1,2,1,19.0,50,0,h,333,52,48
2,1,NAN,3.0,NAN,0.7837708999999999,1,0,3,1,19.0,50,0,o,334,51,49
2,2,1.0,3.0,0.756184,0.2810385,1,0,3,1,19.0,70,0,o,335,49,51
2,2,NAN,3.0,NAN,0.301483,1,1,2,1,19.0,50,0,o,336,48,52
2,1,1.0,3.0,0.4308044,0.2131359,1,1,3,1,19.0,50,0,o,337,51,49
2,2,1.0,3.0,0.4199085999999999,0.2630285999999999,1,0,3,1,19.0,60,0,o,338,49,51
2,2,NAN,3.0,NAN,0.2818450999999999,1,1,1,1,19.0,50,0,o,339,45,55
2,2,NAN,3.0,NAN,0.2519521,1,1,2,1,19.0,70,0,o,340,48,52
2,1,1.0,3.0,0.3698617,0.3483965,1,1,1,1,19.0,60,0,o,341,55,45
2,2,1.0,3.0,0.9557114,0.2134596,1,0,2,1,19.0,60,0,o,342,48,52
2,2,NAN,4.0,NAN,0.0672289,1,1,1,1,19.0,70,0,p,343,45,55
2,1,1.0,3.0,0.6673363,0.2810842,1,1,1,1,19.0,50,0,o,344,55,45
2,1,1.0,3.0,0.4884729999999999,0.1975246,1,1,2,1,19.0,70,0,o,345,52,48
2,2,1.0,3.0,0.4714295,0.1967471,1,0,3,1,19.0,70,0,o,346,49,51
2,1,NAN,3.0,NAN,0.2816279,1,0,2,1,19.0,70,0,o,347,52,48
2,1,1.0,3.0,0.3298092,0.2463091,1,1,1,1,19.0,50,0,o,348,55,45
2,1,NAN,3.0,NAN,0.1324337,1,0,3,1,19.0,70,0,o,349,51,49
2,2,NAN,3.0,NAN,0.1830424,1,1,1,1,19.0,50,0,o,350,45,55
2,1,1.0,3.0,0.5397374,0.2973910999999999,1,1,3,1,19.0,70,0,o,351,51,49
2,1,NAN,3.0,NAN,0.2345266,1,0,2,1,19.0,60,0,o,352,52,48
2,2,NAN,3.0,NAN,0.2841909999999999,1,1,1,1,19.0,60,0,o,353,45,55
2,2,NAN,3.0,NAN,0.3340219,1,1,3,1,19.0,60,0,o,354,49,51
2,2,NAN,3.0,NAN,0.2190422999999999,1,1,3,1,19.0,50,0,o,355,49,51
2,2,NAN,3.0,NAN,0.2492874,1,1,2,1,19.0,60,0,o,356,48,52
2,1,NAN,3.0,NAN,0.4484758,1,0,3,1,19.0,60,0,o,357,51,49
2,1,1.0,3.0,0.8042585999999999,0.3313509,1,1,2,1,19.0,60,0,o,358,52,48
2,2,NAN,3.0,NAN,0.3169375,1,1,1,1,19.0,70,0,o,359,45,55
2,2,NAN,3.0,NAN,0.2812994,1,1,1,1,19.0,70,0,o,360,45,55
2,1,1.0,3.0,0.4880642,0.3302718,1,1,2,1,19.0,60,0,o,361,52,48
2,1,1.0,3.0,0.7562806,0.2634072,1,1,1,1,19.0,70,0,o,362,55,45
2,2,NAN,3.0,NAN,0.267926,1,1,1,1,19.0,50,0,o,363,45,55
2,2,NAN,3.0,NAN,0.3174117,1,1,3,1,19.0,70,0,o,364,49,51
2,1,1.0,3.0,0.488241,0.1977638,1,1,1,1,19.0,60,0,o,365,55,45
2,1,1.0,3.0,0.6843393,0.3310142,1,1,2,1,19.0,60,0,o,366,52,48
2,1,1.0,3.0,0.4214654,0.2643159,1,1,1,1,19.0,50,0,o,367,55,45
2,1,NAN,3.0,NAN,0.2810762,1,0,3,1,19.0,70,0,o,368,51,49
2,2,NAN,3.0,NAN,0.2844988,1,1,3,1,19.0,70,0,o,369,49,51
2,2,NAN,3.0,NAN,0.300536,1,1,2,1,19.0,50,0,o,370,48,52
2,2,NAN,3.0,NAN,0.200924,1,1,1,1,19.0,50,0,o,371,45,55
2,2,NAN,3.0,NAN,0.2353795,1,1,3,1,19.0,50,0,o,372,49,51
2,1,1.0,3.0,0.4063337999999999,0.2647156,1,1,2,1,19.0,70,0,o,373,52,48
2,2,NAN,3.0,NAN,0.2848507999999999,1,1,3,1,19.0,60,0,o,374,49,51
2,2,1.0,3.0,0.3524438,0.2309888,1,0,2,1,19.0,50,0,o,375,48,52
2,1,NAN,3.0,NAN,0.3979992,1,0,3,1,19.0,50,0,o,376,51,49
2,1,1.0,3.0,0.8073537,0.2297174,1,1,2,1,19.0,70,0,o,377,52,48
2,1,1.0,3.0,0.4410161,0.2289327,1,1,1,1,19.0,50,0,o,378,55,45
2,2,NAN,3.0,NAN,0.7007372,1,1,2,1,19.0,60,0,o,379,48,52
2,1,1.0,3.0,0.5242519,0.2150482999999999,1,1,2,1,19.0,50,0,o,380,52,48
2,2,NAN,3.0,NAN,0.0518476,1,1,2,1,19.0,60,0,o,381,48,52
2,2,1.0,3.0,0.388928,0.2469179,1,0,2,1,19.0,70,0,o,382,48,52
2,2,NAN,3.0,NAN,0.1177588,1,1,1,1,19.0,70,0,o,383,45,55
2,2,NAN,3.0,NAN,0.2813503,1,1,1,1,19.0,60,0,o,384,45,55
2,2,NAN,3.0,NAN,0.0343865999999999,1,1,3,1,19.0,60,0,o,385,49,51
2,1,1.0,3.0,0.4480685,0.3301752999999999,1,1,3,1,19.0,60,0,o,386,51,49
2,1,1.0,3.0,0.3847332,0.8468716999999999,1,1,3,1,19.0,50,0,o,387,51,49
2,1,1.0,3.0,0.386988,0.3147112999999999,1,1,3,1,19.0,70,0,o,388,51,49
2,1,1.0,3.0,0.4116682,0.2645593,1,1,1,1,19.0,60,0,o,389,55,45
3,2,NAN,3.0,NAN,0.7632441,1,1,3,1,NAN,60,0,o,0,49,51
3,1,NAN,3.0,NAN,0.7132928000000001,1,0,2,1,NAN,50,0,o,1,52,48
3,2,1.0,2.0,0.7555681,1.3276253999999998,1,0,2,1,NAN,70,0,i,2,48,52
3,2,NAN,3.0,NAN,1.3642905,1,1,1,1,NAN,50,0,o,3,45,55
3,2,NAN,2.0,NAN,1.4811683999999998,1,1,1,1,NAN,70,0,i,4,45,55
3,2,NAN,3.0,NAN,1.2144055,1,1,3,1,NAN,70,0,o,5,49,51
3,1,NAN,3.0,NAN,0.9643078000000002,1,0,1,1,NAN,60,0,o,7,55,45
3,2,NAN,3.0,NAN,1.3465333000000002,1,1,3,1,NAN,70,0,o,8,49,51
3,2,NAN,2.0,NAN,0.9799168,1,1,3,1,NAN,60,0,i,9,49,51
3,1,NAN,3.0,NAN,0.8630735999999999,1,0,3,1,NAN,50,0,o,10,51,49
3,1,1.0,3.0,0.6860984,1.3287924,1,1,2,1,NAN,60,0,o,11,52,48
3,2,NAN,4.0,NAN,1.1310695,1,1,2,1,NAN,60,0,p,12,48,52
3,2,NAN,4.0,NAN,1.4477396,1,1,1,1,NAN,70,0,p,13,45,55
3,2,NAN,4.0,NAN,0.4799918999999999,1,1,3,1,NAN,50,0,p,14,49,51
3,1,NAN,4.0,NAN,0.580168,1,0,2,1,NAN,60,0,p,15,52,48
3,1,NAN,4.0,NAN,1.6464035,1,0,1,1,NAN,60,0,p,16,55,45
3,1,NAN,2.0,NAN,0.5962399,1,0,1,1,NAN,50,0,i,17,55,45
3,2,NAN,2.0,NAN,1.1801091,1,1,1,1,NAN,60,0,i,18,45,55
3,2,NAN,3.0,NAN,1.4636929,1,1,2,1,NAN,50,0,o,19,48,52
3,1,NAN,3.0,NAN,1.8649039,1,0,2,1,NAN,70,0,o,20,52,48
3,1,1.0,2.0,0.6851715,1.1453278999999998,1,1,3,1,NAN,70,0,i,21,51,49
3,1,NAN,2.0,NAN,0.8138155,1,0,1,1,NAN,50,0,i,23,55,45
3,1,NAN,4.0,NAN,0.4300657999999999,1,0,3,1,NAN,50,0,p,24,51,49
3,2,1.0,3.0,0.7354786,0.595282,1,0,2,1,NAN,60,0,o,25,48,52
3,1,1.0,2.0,0.8013644,0.7607503999999999,1,1,1,1,NAN,70,0,i,26,55,45
3,1,1.0,4.0,0.5670121,0.4123844,1,1,2,1,NAN,70,0,p,27,52,48
3,2,NAN,3.0,NAN,0.5647959,1,1,2,1,NAN,50,0,o,28,48,52
3,2,NAN,4.0,NAN,0.4145032999999999,1,1,1,1,NAN,50,0,p,29,45,55
3,2,1.0,3.0,0.7361788,1.5791532,1,0,2,1,NAN,60,0,o,31,48,52
3,2,NAN,4.0,NAN,0.8482896000000001,1,1,3,1,NAN,70,0,p,32,49,51
3,1,NAN,2.0,NAN,1.4966087,1,0,3,1,NAN,70,0,i,33,51,49
3,1,1.0,2.0,0.7612569,0.6609233,1,1,1,1,NAN,50,0,i,34,55,45
3,1,NAN,4.0,NAN,1.3477437,1,0,3,1,NAN,50,0,p,35,51,49
3,2,NAN,2.0,NAN,0.8314905,1,1,2,1,NAN,60,0,i,36,48,52
3,1,NAN,4.0,NAN,0.6312526999999999,1,0,1,1,NAN,60,0,p,37,55,45
3,2,NAN,4.0,NAN,0.7463025,1,1,3,1,NAN,70,0,p,38,49,51
3,1,1.0,3.0,0.8376756999999999,1.1966999,1,1,2,1,NAN,70,0,o,39,52,48
3,1,NAN,2.0,NAN,1.6152905,1,0,3,1,NAN,70,0,i,40,51,49
3,2,NAN,4.0,NAN,0.4315931999999999,1,1,1,1,NAN,70,0,p,41,45,55
3,2,1.0,4.0,0.6032638000000001,0.6793668,1,0,3,1,NAN,60,0,p,42,49,51
3,1,NAN,4.0,NAN,1.9167658,1,0,2,1,NAN,60,0,p,43,52,48
3,1,1.0,3.0,0.9181134,0.4636081,1,1,1,1,NAN,50,0,o,44,55,45
3,1,1.0,3.0,0.6355536999999999,1.4483908,1,1,1,1,NAN,70,0,o,45,55,45
3,2,NAN,2.0,NAN,1.2010567,1,1,1,1,NAN,50,0,i,46,45,55
3,1,NAN,4.0,NAN,0.6841702,1,0,1,1,NAN,60,0,p,48,55,45
3,2,NAN,4.0,NAN,0.2672802,1,1,3,1,NAN,50,0,p,49,49,51
3,1,NAN,4.0,NAN,0.0838672,1,0,2,1,NAN,70,0,p,50,52,48
3,1,NAN,4.0,NAN,0.8681886999999999,1,0,2,1,NAN,50,0,p,51,52,48
3,1,1.0,3.0,0.4559502,0.9461563,1,1,3,1,NAN,50,0,o,52,51,49
3,2,1.0,3.0,0.6872913,0.7795966999999999,1,0,2,1,NAN,50,0,o,53,48,52
3,1,NAN,2.0,NAN,1.7813223000000002,1,0,2,1,NAN,60,0,i,54,52,48
3,2,1.0,1.0,0.8939248,1.9101583,1,0,1,1,NAN,50,0,u,55,45,55
3,1,NAN,2.0,NAN,0.131126,1,0,3,1,NAN,60,0,i,56,51,49
3,2,NAN,3.0,NAN,0.8138473,1,1,1,1,NAN,70,0,o,57,45,55
3,2,1.0,3.0,0.7030578000000001,0.6784939,1,0,3,1,NAN,60,0,o,58,49,51
3,2,NAN,3.0,NAN,1.1014933999999998,1,1,3,1,NAN,70,0,o,60,49,51
3,1,NAN,3.0,NAN,0.7853639,1,0,3,1,NAN,50,0,o,61,51,49
3,2,NAN,3.0,NAN,0.6507605,1,1,1,1,NAN,70,0,o,62,45,55
3,2,NAN,2.0,NAN,1.1164695,1,1,3,1,NAN,60,0,i,63,49,51
3,1,NAN,3.0,NAN,1.4667298999999998,1,0,2,1,NAN,70,0,o,64,52,48
3,2,1.0,3.0,0.8743218,1.3460347,1,0,3,1,NAN,50,0,o,65,49,51
3,2,1.0,3.0,0.9198391,0.7952069,1,0,2,1,NAN,70,0,o,66,48,52
3,1,NAN,3.0,NAN,1.5484903,1,0,3,1,NAN,50,0,o,67,51,49
3,1,NAN,3.0,NAN,1.8315937,1,0,2,1,NAN,60,0,o,68,52,48
3,2,NAN,2.0,NAN,1.8518021,1,1,1,1,NAN,70,0,i,69,45,55
3,1,NAN,3.0,NAN,1.38457,1,0,2,1,NAN,60,0,o,70,52,48
3,2,1.0,2.0,0.9214207,0.8647394,1,0,2,1,NAN,50,0,i,71,48,52
3,2,NAN,3.0,NAN,1.5000941,1,1,3,1,NAN,70,0,o,73,49,51
3,1,NAN,3.0,NAN,0.6143099,1,0,2,1,NAN,50,0,o,74,52,48
3,1,NAN,2.0,NAN,0.0647407,1,0,1,1,NAN,50,0,i,75,55,45
3,2,NAN,3.0,NAN,0.4184329,1,1,1,1,NAN,60,0,o,76,45,55
3,2,1.0,2.0,0.4395024999999999,0.7478959,1,0,2,1,NAN,60,0,i,77,48,52
3,1,NAN,3.0,NAN,0.4822920999999999,1,0,1,1,NAN,60,0,o,78,55,45
3,1,1.0,2.0,0.7218926,0.780116,1,1,2,1,NAN,70,0,i,79,52,48
3,1,1.0,3.0,0.6534969,1.1300323,1,1,3,1,NAN,60,0,o,80,51,49
3,1,1.0,3.0,0.8036989,0.6803684,1,1,1,1,NAN,50,0,o,81,55,45
3,1,NAN,3.0,NAN,0.5006705,1,0,1,1,NAN,60,0,o,82,55,45
3,1,1.0,2.0,0.7894471,1.0150648000000002,1,1,1,1,NAN,70,0,i,83,55,45
3,2,1.0,2.0,0.8592732,1.1982578000000002,1,0,1,1,NAN,50,0,i,84,45,55
3,1,NAN,3.0,NAN,0.5019842999999999,1,0,3,1,NAN,70,0,o,85,51,49
3,2,NAN,3.0,NAN,0.9179453000000002,1,1,3,1,NAN,60,0,o,86,49,51
3,2,NAN,3.0,NAN,0.5646312,1,1,1,1,NAN,50,0,o,87,45,55
3,2,NAN,3.0,NAN,0.8315171,1,1,2,1,NAN,60,0,o,88,48,52
3,2,NAN,3.0,NAN,0.9148854,1,1,2,1,NAN,50,0,o,89,48,52
3,1,NAN,3.0,NAN,1.3003402,1,0,1,1,NAN,60,0,o,90,55,45
3,1,NAN,3.0,NAN,0.5516203000000001,1,0,3,1,NAN,60,0,o,91,51,49
3,2,NAN,2.0,NAN,0.5848686,1,1,2,1,NAN,70,0,i,92,48,52
3,2,NAN,3.0,NAN,0.9518931,1,1,2,1,NAN,60,0,o,93,48,52
3,1,NAN,3.0,NAN,0.6978111,1,0,1,1,NAN,70,0,o,94,55,45
3,1,1.0,2.0,0.8039116999999999,0.8457520000000001,1,1,2,1,NAN,70,0,i,95,52,48
3,2,NAN,3.0,NAN,0.6148279000000001,1,1,1,1,NAN,70,0,o,96,45,55
3,2,NAN,3.0,NAN,0.6478863,1,1,1,1,NAN,60,0,o,97,45,55
3,1,NAN,3.0,NAN,1.4673488,1,0,3,1,NAN,50,0,o,98,51,49
3,1,1.0,2.0,0.8228644,1.0489301000000002,1,1,2,1,NAN,60,0,i,99,52,48
3,2,NAN,2.0,NAN,1.7686671000000005,1,1,3,1,NAN,50,0,i,100,49,51
3,2,1.0,3.0,0.8393360999999999,0.7815451,1,0,3,1,NAN,70,0,o,101,49,51
3,1,NAN,2.0,NAN,1.6340567,1,0,2,1,NAN,70,0,i,102,52,48
3,2,NAN,3.0,NAN,0.8841275,1,1,1,1,NAN,50,0,o,103,45,55
3,2,NAN,2.0,NAN,0.8837185,1,1,3,1,NAN,60,0,i,104,49,51
3,1,NAN,3.0,NAN,1.3342633999999998,1,0,3,1,NAN,70,0,o,105,51,49
3,1,NAN,3.0,NAN,1.5829544,1,0,2,1,NAN,50,0,o,106,52,48
3,2,1.0,2.0,0.9386653,1.3481553,1,0,2,1,NAN,50,0,i,107,48,52
3,2,NAN,2.0,NAN,1.6853397,1,1,2,1,NAN,50,0,i,108,48,52
3,1,NAN,3.0,NAN,0.734835,1,0,2,1,NAN,60,0,o,109,52,48
3,2,NAN,3.0,NAN,0.950479,1,1,1,1,NAN,70,0,o,110,45,55
3,1,1.0,3.0,0.4410909,1.1469717,1,1,1,1,NAN,60,0,o,111,55,45
3,2,NAN,3.0,NAN,0.6337816999999999,1,1,3,1,NAN,60,0,o,112,49,51
3,1,NAN,3.0,NAN,1.1160259,1,0,3,1,NAN,50,0,o,113,51,49
3,1,NAN,3.0,NAN,1.0149331,1,0,3,1,NAN,70,0,o,114,51,49
3,2,NAN,3.0,NAN,0.7510935999999999,1,1,3,1,NAN,70,0,o,115,49,51
3,2,NAN,3.0,NAN,1.2180399,1,1,2,1,NAN,60,0,o,116,48,52
3,2,NAN,3.0,NAN,0.5846401,1,1,1,1,NAN,50,0,o,117,45,55
3,1,1.0,3.0,0.5987191,1.1808565,1,1,1,1,NAN,50,0,o,118,55,45
3,1,1.0,4.0,0.6879145999999999,1.1313468999999998,1,1,1,1,NAN,50,0,p,119,55,45
3,2,NAN,4.0,NAN,0.9309405,1,1,1,1,NAN,60,0,p,120,45,55
3,1,NAN,4.0,NAN,0.7310285,1,0,2,1,NAN,50,0,p,121,52,48
3,2,NAN,3.0,NAN,0.4142247999999999,1,1,1,1,NAN,70,0,o,122,45,55
3,1,NAN,2.0,NAN,0.9651473,1,0,1,1,NAN,60,0,i,123,55,45
3,2,NAN,3.0,NAN,0.8854664000000001,1,1,1,1,NAN,50,0,o,124,45,55
3,1,NAN,3.0,NAN,1.3676363,1,0,2,1,NAN,70,0,o,125,52,48
3,2,NAN,3.0,NAN,0.6346529000000001,1,1,1,1,NAN,70,0,o,126,45,55
3,2,1.0,2.0,0.5897435000000001,0.8803833000000001,1,0,2,1,NAN,60,0,i,127,48,52
3,2,NAN,2.0,NAN,0.5667706,1,1,3,1,NAN,60,0,i,128,49,51
3,2,NAN,2.0,NAN,0.7328254,1,1,3,1,NAN,50,0,i,129,49,51
3,1,NAN,2.0,NAN,1.881491,1,0,3,1,NAN,70,0,i,130,51,49
3,1,1.0,3.0,0.8201761000000001,0.5809054,1,1,2,1,NAN,60,0,o,131,52,48
3,1,1.0,3.0,0.7206543000000001,0.8811667,1,1,3,1,NAN,50,0,o,132,51,49
3,2,NAN,3.0,NAN,0.6678284999999999,1,1,3,1,NAN,70,0,o,133,49,51
3,2,NAN,3.0,NAN,1.2011112,1,1,2,1,NAN,50,0,o,134,48,52
3,1,NAN,2.0,NAN,0.4679457,1,0,2,1,NAN,70,0,i,135,52,48
3,1,NAN,3.0,NAN,1.451535,1,0,2,1,NAN,60,0,o,136,52,48
3,2,NAN,3.0,NAN,1.2342783000000002,1,1,1,1,NAN,50,0,o,137,45,55
3,2,NAN,3.0,NAN,1.1333254,1,1,3,1,NAN,70,0,o,138,49,51
3,1,NAN,2.0,NAN,1.4186692,1,0,1,1,NAN,50,0,i,139,55,45
3,2,NAN,3.0,NAN,1.4354423,1,1,2,1,NAN,60,0,o,140,48,52
3,1,NAN,3.0,NAN,1.4355818,1,0,3,1,NAN,60,0,o,141,51,49
3,1,NAN,3.0,NAN,1.4180207,1,0,1,1,NAN,60,0,o,142,55,45
3,1,NAN,3.0,NAN,0.8845417999999999,1,0,3,1,NAN,70,0,o,143,51,49
3,1,NAN,2.0,NAN,0.8007380000000001,1,0,1,1,NAN,50,0,i,144,55,45
3,1,NAN,3.0,NAN,0.6342135999999999,1,0,3,1,NAN,50,0,o,145,51,49
3,2,NAN,3.0,NAN,1.0838498,1,1,2,1,NAN,50,0,o,146,48,52
3,2,NAN,3.0,NAN,0.5353566999999999,1,1,3,1,NAN,60,0,o,147,49,51
3,2,NAN,3.0,NAN,1.0017893,1,1,2,1,NAN,70,0,o,148,48,52
3,1,1.0,3.0,0.7334712,0.7320257,1,1,1,1,NAN,70,0,o,149,55,45
3,2,NAN,4.0,NAN,1.1335806000000002,1,1,3,1,NAN,60,0,p,150,49,51
3,1,NAN,4.0,NAN,0.5672664000000001,1,0,2,1,NAN,70,0,p,151,52,48
3,2,1.0,2.0,0.6076792,0.9313259,1,0,1,1,NAN,60,0,i,152,45,55
3,1,NAN,4.0,NAN,0.40064,1,0,3,1,NAN,50,0,p,153,51,49
3,1,1.0,3.0,0.3489332,0.5804001999999999,1,1,1,1,NAN,50,0,o,154,55,45
3,2,1.0,4.0,0.8386925,0.9816865,1,0,2,1,NAN,50,0,p,155,48,52
3,1,1.0,4.0,0.6559018,0.7315741,1,1,3,1,NAN,70,0,p,156,51,49
3,1,NAN,4.0,NAN,0.4687382,1,0,3,1,NAN,50,0,p,157,51,49
3,2,NAN,4.0,NAN,0.6315121,1,1,2,1,NAN,60,0,p,158,48,52
3,2,NAN,4.0,NAN,1.5647951999999998,1,1,2,1,NAN,70,0,p,159,48,52
3,1,1.0,3.0,0.6541879,0.6458547,1,1,2,1,NAN,70,0,o,160,52,48
3,2,1.0,4.0,0.8742404,1.1638115,1,0,3,1,NAN,60,0,p,161,49,51
3,1,NAN,4.0,NAN,0.5160007999999999,1,0,2,1,NAN,50,0,p,162,52,48
3,1,NAN,4.0,NAN,0.0004109,1,0,1,1,NAN,60,0,p,163,55,45
3,1,1.0,3.0,0.8218614,0.5142153,1,1,2,1,NAN,60,0,o,164,52,48
3,1,NAN,3.0,NAN,0.8006434,1,0,1,1,NAN,60,0,o,165,55,45
3,2,NAN,4.0,NAN,0.6677771,1,1,2,1,NAN,60,0,p,166,48,52
3,1,1.0,3.0,0.3716042,0.6310229,1,1,2,1,NAN,60,0,o,167,52,48
3,1,1.0,3.0,0.5549582,0.6144545,1,1,3,1,NAN,60,0,o,168,51,49
3,1,NAN,4.0,NAN,0.4164090999999999,1,0,3,1,NAN,70,0,p,169,51,49
3,1,1.0,4.0,0.537825,0.6803555,1,1,1,1,NAN,70,0,p,170,55,45
3,2,NAN,4.0,NAN,0.4316879,1,1,1,1,NAN,50,0,p,171,45,55
3,2,NAN,4.0,NAN,0.7983424,1,1,3,1,NAN,50,0,p,172,49,51
3,2,NAN,4.0,NAN,0.3677261,1,1,1,1,NAN,70,0,p,173,45,55
3,2,1.0,3.0,0.4777866,1.3145622,1,0,3,1,NAN,70,0,o,174,49,51
3,1,1.0,3.0,0.6045232,0.6794483,1,1,1,1,NAN,50,0,o,175,55,45
3,2,NAN,4.0,NAN,0.3664477,1,1,2,1,NAN,50,0,p,176,48,52
3,2,1.0,3.0,0.5851015,0.8629319,1,0,1,1,NAN,70,0,o,177,45,55
3,2,NAN,4.0,NAN,0.8994254,1,1,1,1,NAN,50,0,p,178,45,55
3,2,NAN,3.0,NAN,0.9347647,1,1,3,1,NAN,70,0,o,179,49,51
3,2,NAN,4.0,NAN,0.417371,1,1,2,1,NAN,50,0,p,180,48,52
3,1,1.0,3.0,0.5372694,0.8982884,1,1,1,1,NAN,60,0,o,181,55,45
3,2,NAN,4.0,NAN,0.5009355999999999,1,1,1,1,NAN,70,0,p,182,45,55
3,1,NAN,4.0,NAN,0.4508539000000001,1,0,3,1,NAN,50,0,p,183,51,49
3,1,1.0,3.0,0.4353596999999999,0.4137432,1,1,2,1,NAN,60,0,o,184,52,48
3,1,NAN,3.0,NAN,0.4665553,1,0,2,1,NAN,60,0,o,185,52,48
3,1,1.0,3.0,0.5618349,1.1944778,1,1,1,1,NAN,50,0,o,186,55,45
3,2,NAN,4.0,NAN,0.3816450999999999,1,1,3,1,NAN,60,0,p,187,49,51
3,2,1.0,3.0,0.554492,0.8781048,1,0,2,1,NAN,70,0,o,188,48,52
3,1,1.0,4.0,0.9477755,1.1311881,1,1,2,1,NAN,70,0,p,189,52,48
3,2,NAN,4.0,NAN,0.4508259,1,1,2,1,NAN,60,0,p,190,48,52
3,1,NAN,3.0,NAN,0.8508353999999999,1,0,1,1,NAN,60,0,o,191,55,45
3,2,NAN,4.0,NAN,0.4340323,1,1,3,1,NAN,70,0,p,192,49,51
3,2,1.0,3.0,0.687543,0.5961493,1,0,2,1,NAN,50,0,o,193,48,52
3,2,NAN,4.0,NAN,0.3815305999999999,1,1,3,1,NAN,60,0,p,194,49,51
3,1,1.0,3.0,0.3029459,0.4149831,1,1,1,1,NAN,50,0,o,195,55,45
3,1,1.0,4.0,0.5689048000000001,0.7816637,1,1,3,1,NAN,70,0,p,196,51,49
3,2,NAN,4.0,NAN,0.5346831999999999,1,1,1,1,NAN,60,0,p,197,45,55
3,1,1.0,3.0,0.9205761999999998,0.6140909000000001,1,1,2,1,NAN,50,0,o,198,52,48
3,2,NAN,4.0,NAN,0.3644989999999999,1,1,1,1,NAN,50,0,p,199,45,55
3,2,NAN,4.0,NAN,0.381375,1,1,3,1,NAN,50,0,p,200,49,51
3,1,1.0,3.0,0.5534522,0.560394,1,1,1,1,NAN,70,0,o,201,55,45
3,1,NAN,4.0,NAN,0.3839535,1,0,3,1,NAN,60,0,p,202,51,49
3,1,NAN,4.0,NAN,0.8348991,1,0,3,1,NAN,70,0,p,203,51,49
3,1,NAN,4.0,NAN,1.1354749,1,0,3,1,NAN,50,0,p,204,51,49
3,2,NAN,3.0,NAN,0.651942,1,1,3,1,NAN,70,0,o,205,49,51
3,2,NAN,3.0,NAN,1.7349107,1,1,1,1,NAN,70,0,o,206,45,55
3,2,NAN,4.0,NAN,0.4011835,1,1,1,1,NAN,50,0,p,207,45,55
3,2,NAN,4.0,NAN,0.8491960999999999,1,1,2,1,NAN,60,0,p,208,48,52
3,1,1.0,4.0,0.4802407999999999,1.0795937,1,1,2,1,NAN,70,0,p,209,52,48
3,1,NAN,4.0,NAN,0.6469077,1,0,3,1,NAN,70,0,p,210,51,49
3,2,NAN,4.0,NAN,0.3681157,1,1,3,1,NAN,60,0,p,211,49,51
3,1,1.0,3.0,0.5561834,0.7144543000000001,1,1,2,1,NAN,60,0,o,212,52,48
3,1,NAN,4.0,NAN,0.3840367,1,0,2,1,NAN,70,0,p,213,52,48
3,2,NAN,4.0,NAN,0.4006104,1,1,1,1,NAN,50,0,p,214,45,55
3,2,1.0,3.0,0.7690013000000001,0.4300547,1,0,2,1,NAN,50,0,o,215,48,52
3,1,1.0,3.0,0.5357069000000001,0.4643654,1,1,2,1,NAN,70,0,o,216,52,48
3,1,NAN,4.0,NAN,0.3499463,1,0,3,1,NAN,60,0,p,217,51,49
3,1,NAN,3.0,NAN,1.0505203,1,0,3,1,NAN,70,0,o,218,51,49
3,2,1.0,3.0,0.7386968,0.5485671,1,0,2,1,NAN,50,0,o,219,48,52
3,2,1.0,3.0,0.5888989,0.4315865,1,0,3,1,NAN,60,0,o,220,49,51
3,1,NAN,4.0,NAN,0.5847952,1,0,1,1,NAN,70,0,p,221,55,45
3,1,1.0,4.0,0.6683186,0.7797826,1,1,2,1,NAN,50,0,p,222,52,48
3,2,NAN,4.0,NAN,0.6313748,1,1,2,1,NAN,70,0,p,223,48,52
3,1,1.0,3.0,0.6061158,0.3785933,1,1,1,1,NAN,60,0,o,224,55,45
3,2,NAN,4.0,NAN,0.3669195,1,1,3,1,NAN,70,0,p,225,49,51
3,2,NAN,4.0,NAN,0.3989905,1,1,2,1,NAN,60,0,p,226,48,52
3,2,NAN,4.0,NAN,0.3850545999999999,1,1,2,1,NAN,60,0,p,227,48,52
3,1,1.0,4.0,0.637463,0.9140175,1,1,1,1,NAN,60,0,p,228,55,45
3,2,NAN,3.0,NAN,0.6677196,1,1,3,1,NAN,70,0,o,229,49,51
3,1,NAN,4.0,NAN,0.3330212999999999,1,0,2,1,NAN,60,0,p,230,52,48
3,1,NAN,4.0,NAN,0.4512406,1,0,3,1,NAN,50,0,p,231,51,49
3,1,1.0,4.0,0.2546114,0.5143633,1,1,3,1,NAN,50,0,p,232,51,49
3,2,1.0,4.0,0.8843823000000001,0.3636477,1,0,3,1,NAN,50,0,p,233,49,51
3,2,1.0,4.0,0.9223052,0.4137028,1,0,1,1,NAN,70,0,p,234,45,55
3,1,1.0,4.0,0.7543163,0.3462088,1,1,1,1,NAN,50,0,p,235,55,45
3,2,NAN,4.0,NAN,0.1482985,1,1,1,1,NAN,50,0,p,236,45,55
3,2,NAN,4.0,NAN,1.1680514,1,1,1,1,NAN,70,0,p,237,45,55
3,1,1.0,4.0,0.9372933,0.4798812,1,1,1,1,NAN,50,0,p,238,55,45
3,2,NAN,4.0,NAN,0.3840935,1,1,1,1,NAN,60,0,p,239,45,55
3,2,NAN,4.0,NAN,0.6645121999999999,1,1,3,1,NAN,70,0,p,240,49,51
3,2,NAN,4.0,NAN,0.3806388,1,1,2,1,NAN,60,0,p,241,48,52
3,2,NAN,4.0,NAN,0.3172032,1,1,1,1,NAN,60,0,p,242,45,55
3,1,1.0,3.0,0.6387404999999999,0.5645658,1,1,2,1,NAN,60,0,o,243,52,48
3,2,NAN,4.0,NAN,0.4510055,1,1,3,1,NAN,50,0,p,244,49,51
3,1,1.0,3.0,0.5187208999999999,1.0149487,1,1,1,1,NAN,70,0,o,245,55,45
3,2,NAN,4.0,NAN,0.4174156,1,1,1,1,NAN,50,0,p,246,45,55
3,1,NAN,4.0,NAN,0.5511076,1,0,1,1,NAN,50,0,p,247,55,45
3,1,1.0,3.0,0.6715694999999999,0.9477455,1,1,3,1,NAN,70,0,o,248,51,49
3,2,NAN,4.0,NAN,0.8003451,1,1,1,1,NAN,70,0,p,249,45,55
3,1,1.0,3.0,0.6207116,0.4627975,1,1,1,1,NAN,60,0,o,250,55,45
3,1,1.0,4.0,0.3544447,0.5128792999999999,1,1,1,1,NAN,50,0,p,251,55,45
3,1,NAN,4.0,NAN,0.4020263,1,0,3,1,NAN,50,0,p,252,51,49
3,1,NAN,4.0,NAN,0.7177135,1,0,2,1,NAN,60,0,p,253,52,48
3,2,1.0,3.0,0.3878284999999999,0.4132840999999999,1,0,3,1,NAN,60,0,o,254,49,51
3,2,NAN,4.0,NAN,0.3664493,1,1,1,1,NAN,50,0,p,255,45,55
3,2,NAN,4.0,NAN,0.3838652999999999,1,1,2,1,NAN,50,0,p,256,48,52
3,1,NAN,3.0,NAN,1.1171613,1,0,1,1,NAN,60,0,o,257,55,45
3,2,1.0,4.0,0.2552587,0.5304112,1,0,1,1,NAN,70,0,p,258,45,55
3,2,NAN,4.0,NAN,0.3513232999999999,1,1,3,1,NAN,60,0,p,259,49,51
3,1,1.0,3.0,0.7714293000000001,0.514995,1,1,3,1,NAN,50,0,o,260,51,49
3,1,1.0,3.0,0.3207772,0.512949,1,1,3,1,NAN,70,0,o,261,51,49
3,1,1.0,3.0,0.4511484,0.6973912,1,1,2,1,NAN,70,0,o,262,52,48
3,1,NAN,4.0,NAN,0.9169765,1,0,2,1,NAN,50,0,p,263,52,48
3,2,1.0,3.0,0.2562538,0.4794305,1,0,2,1,NAN,70,0,o,264,48,52
3,1,1.0,3.0,0.4512768,0.3794745999999999,1,1,2,1,NAN,70,0,o,265,52,48
3,1,1.0,4.0,0.30198,0.5301732,1,1,3,1,NAN,60,0,p,266,51,49
3,2,1.0,4.0,0.5547231,0.4478636,1,0,3,1,NAN,70,0,p,267,49,51
3,2,1.0,4.0,0.7212378,0.4482779,1,0,2,1,NAN,50,0,p,268,48,52
3,2,NAN,4.0,NAN,0.3357387,1,1,2,1,NAN,60,0,p,269,48,52
3,1,NAN,2.0,NAN,1.4673435,1,0,1,1,NAN,60,0,i,270,55,45
3,2,NAN,2.0,NAN,1.8375329,1,1,2,1,NAN,50,0,i,271,48,52
3,2,1.0,3.0,0.6374559,0.7976598000000001,1,0,2,1,NAN,70,0,o,272,48,52
3,2,NAN,3.0,NAN,0.3672079,1,1,3,1,NAN,60,0,o,273,49,51
3,1,1.0,3.0,0.3041705999999999,0.5134986,1,1,1,1,NAN,70,0,o,274,55,45
3,2,1.0,2.0,0.5210423,0.8628577,1,0,3,1,NAN,70,0,i,275,49,51
3,1,NAN,2.0,NAN,1.1812087,1,0,2,1,NAN,70,0,i,276,52,48
3,2,NAN,3.0,NAN,0.031317,1,1,1,1,NAN,70,0,o,277,45,55
3,2,NAN,3.0,NAN,0.4012216,1,1,3,1,NAN,70,0,o,278,49,51
3,1,NAN,3.0,NAN,0.6676594,1,0,3,1,NAN,60,0,o,279,51,49
3,1,1.0,2.0,0.4873431,0.5298971,1,1,1,1,NAN,50,0,i,280,55,45
3,1,NAN,3.0,NAN,0.8488988000000001,1,0,3,1,NAN,50,0,o,281,51,49
3,2,NAN,3.0,NAN,0.3652063,1,1,2,1,NAN,50,0,o,282,48,52
3,2,NAN,3.0,NAN,0.3015441,1,1,2,1,NAN,60,0,o,283,48,52
3,2,NAN,3.0,NAN,0.5849072,1,1,1,1,NAN,70,0,o,284,45,55
3,1,1.0,3.0,0.5735793,0.5481305999999999,1,1,2,1,NAN,50,0,o,285,52,48
3,2,NAN,2.0,NAN,0.5019238,1,1,1,1,NAN,50,0,i,286,45,55
3,2,NAN,3.0,NAN,0.3670817,1,1,3,1,NAN,60,0,o,287,49,51
3,1,NAN,2.0,NAN,0.8472226999999999,1,0,2,1,NAN,60,0,i,288,52,48
3,2,1.0,2.0,0.6328739000000001,0.5112769,1,0,3,1,NAN,50,0,i,289,49,51
3,2,NAN,3.0,NAN,0.8970568999999999,1,1,2,1,NAN,60,0,o,290,48,52
3,1,1.0,3.0,0.4547827,0.8292664000000001,1,1,3,1,NAN,70,0,o,291,51,49
3,1,1.0,3.0,0.4793858,0.4815974,1,1,1,1,NAN,50,0,o,292,55,45
3,1,1.0,3.0,0.4765369,1.2978713,1,1,3,1,NAN,70,0,o,293,51,49
3,2,NAN,3.0,NAN,0.3148397999999999,1,1,1,1,NAN,50,0,o,294,45,55
3,2,NAN,3.0,NAN,0.3168928,1,1,1,1,NAN,60,0,o,295,45,55
3,1,1.0,3.0,0.5189443,0.6290251,1,1,2,1,NAN,70,0,o,296,52,48
3,1,1.0,3.0,0.723008,0.3964407,1,1,2,1,NAN,60,0,o,297,52,48
3,1,1.0,3.0,0.5537265,0.6461756999999999,1,1,1,1,NAN,60,0,o,298,55,45
3,1,NAN,3.0,NAN,0.2986841,1,0,3,1,NAN,50,0,o,299,51,49
3,1,NAN,3.0,NAN,1.1339962,1,0,2,1,NAN,70,0,o,300,52,48
3,1,NAN,3.0,NAN,0.9176337,1,0,2,1,NAN,50,0,o,301,52,48
3,1,1.0,3.0,0.502699,0.8142541,1,1,2,1,NAN,60,0,o,302,52,48
3,2,NAN,3.0,NAN,0.3509927,1,1,1,1,NAN,50,0,o,303,45,55
3,1,NAN,3.0,NAN,0.767101,1,0,3,1,NAN,50,0,o,304,51,49
3,2,1.0,2.0,0.7709246999999999,0.6141191,1,0,1,1,NAN,50,0,i,305,45,55
3,1,1.0,3.0,0.7536686,0.7450831,1,1,2,1,NAN,60,0,o,306,52,48
3,2,NAN,3.0,NAN,0.298756,1,1,3,1,NAN,60,0,o,307,49,51
3,2,NAN,3.0,NAN,0.768081,1,1,2,1,NAN,70,0,o,308,48,52
3,2,1.0,3.0,0.4891121,0.3981734,1,0,1,1,NAN,60,0,o,309,45,55
3,1,1.0,2.0,0.7045878000000001,1.1964217,1,1,1,1,NAN,60,0,i,310,55,45
3,2,NAN,3.0,NAN,0.3318922,1,1,2,1,NAN,60,0,o,311,48,52
3,2,NAN,3.0,NAN,0.4485484,1,1,2,1,NAN,50,0,o,312,48,52
3,1,NAN,3.0,NAN,0.6819173000000001,1,0,3,1,NAN,60,0,o,313,51,49
3,2,1.0,2.0,0.8789109,0.4467786,1,0,3,1,NAN,50,0,i,314,49,51
3,1,1.0,2.0,0.4581369,0.5317182,1,1,1,1,NAN,50,0,i,315,55,45
3,2,1.0,2.0,0.6888472,0.4650224,1,0,3,1,NAN,70,0,i,316,49,51
3,1,1.0,2.0,0.6378294,0.3812930999999999,1,1,1,1,NAN,60,0,i,317,55,45
3,1,NAN,3.0,NAN,0.3303682,1,0,3,1,NAN,50,0,o,318,51,49
3,2,1.0,3.0,0.5061642,0.6803589,1,0,2,1,NAN,60,0,o,319,48,52
3,2,NAN,3.0,NAN,0.3506269,1,1,1,1,NAN,70,0,o,320,45,55
3,1,1.0,3.0,0.6912578,0.496054,1,1,3,1,NAN,70,0,o,321,51,49
3,1,1.0,3.0,0.6541706,0.4292875,1,1,1,1,NAN,70,0,o,322,55,45
3,1,NAN,3.0,NAN,0.6179319000000001,1,0,1,1,NAN,50,0,o,323,55,45
3,2,1.0,2.0,0.5876266,0.5644515,1,0,2,1,NAN,50,0,i,324,48,52
3,2,NAN,2.0,NAN,1.1493833999999998,1,1,3,1,NAN,60,0,i,325,49,51
3,1,NAN,3.0,NAN,0.3497079,1,0,3,1,NAN,70,0,o,326,51,49
3,1,1.0,3.0,0.6020945,0.430963,1,1,2,1,NAN,70,0,o,327,52,48
3,2,NAN,3.0,NAN,0.3672217,1,1,3,1,NAN,70,0,o,328,49,51
3,2,NAN,2.0,NAN,0.6297607,1,1,1,1,NAN,70,0,i,329,45,55
3,1,NAN,3.0,NAN,1.3653543,1,0,3,1,NAN,50,0,o,330,51,49
3,1,1.0,2.0,0.6566838,0.7809995,1,1,2,1,NAN,70,0,i,331,52,48
3,2,NAN,3.0,NAN,0.5347805,1,1,3,1,NAN,70,0,o,332,49,51
3,2,NAN,2.0,NAN,0.7008538000000001,1,1,2,1,NAN,60,0,i,333,48,52
3,1,1.0,3.0,0.5704767,0.7296875,1,1,2,1,NAN,60,0,o,334,52,48
3,2,NAN,3.0,NAN,0.3476437,1,1,2,1,NAN,60,0,o,335,48,52
3,2,1.0,2.0,0.7628691999999999,0.6635483,1,0,3,1,NAN,50,0,i,336,49,51
3,2,NAN,3.0,NAN,0.4997532999999999,1,1,2,1,NAN,70,0,o,337,48,52
3,1,1.0,2.0,0.7381464,0.97937,1,1,1,1,NAN,70,0,i,338,55,45
3,2,NAN,3.0,NAN,0.3322817,1,1,3,1,NAN,60,0,o,339,49,51
3,2,NAN,3.0,NAN,0.4840819,1,1,3,1,NAN,70,0,o,340,49,51
3,1,1.0,3.0,0.6889736999999999,0.5318075,1,1,2,1,NAN,60,0,o,341,52,48
3,1,NAN,3.0,NAN,0.4509978,1,0,3,1,NAN,70,0,o,342,51,49
3,2,NAN,3.0,NAN,0.3512390999999999,1,1,1,1,NAN,60,0,o,343,45,55
3,2,1.0,2.0,0.2914885,0.8301812,1,0,1,1,NAN,70,0,i,344,45,55
3,1,1.0,2.0,0.9199621,0.7287075,1,1,3,1,NAN,70,0,i,345,51,49
3,1,NAN,3.0,NAN,1.2833133999999995,1,0,3,1,NAN,50,0,o,346,51,49
3,1,1.0,2.0,0.7742878000000001,0.4811897,1,1,3,1,NAN,60,0,i,347,51,49
3,2,1.0,2.0,0.6543002,0.3970225999999999,1,0,1,1,NAN,50,0,i,348,45,55
3,1,1.0,2.0,0.5689863000000001,0.3312432,1,1,2,1,NAN,50,0,i,349,52,48
3,2,NAN,3.0,NAN,0.3650618,1,1,3,1,NAN,60,0,o,350,49,51
3,2,NAN,3.0,NAN,0.4983773,1,1,1,1,NAN,70,0,o,351,45,55
3,2,1.0,3.0,0.5515661999999999,0.7138348000000001,1,0,2,1,NAN,50,0,o,352,48,52
3,1,1.0,2.0,0.8255054000000001,0.5971145999999999,1,1,1,1,NAN,50,0,i,353,55,45
3,2,NAN,3.0,NAN,0.3141416999999999,1,1,1,1,NAN,50,0,o,354,45,55
3,2,NAN,3.0,NAN,0.7039925,1,1,2,1,NAN,50,0,o,355,48,52
3,1,NAN,3.0,NAN,0.4513757,1,0,1,1,NAN,60,0,o,356,55,45
3,1,1.0,3.0,0.488306,0.5140454000000001,1,1,1,1,NAN,60,0,o,357,55,45
3,1,NAN,3.0,NAN,1.1158111000000002,1,0,1,1,NAN,50,0,o,358,55,45
3,1,1.0,3.0,0.6194004,0.4978867999999999,1,1,2,1,NAN,70,0,o,359,52,48
3,1,NAN,3.0,NAN,0.3821365,1,0,3,1,NAN,60,0,o,360,51,49
3,2,NAN,3.0,NAN,0.3148632999999999,1,1,1,1,NAN,70,0,o,361,45,55
3,1,1.0,3.0,0.3225182,0.4129378999999999,1,1,2,1,NAN,60,0,o,362,52,48
3,2,NAN,3.0,NAN,0.3510632,1,1,1,1,NAN,50,0,o,363,45,55
3,1,1.0,3.0,0.4584611,0.3482462999999999,1,1,3,1,NAN,70,0,o,364,51,49
3,2,1.0,3.0,0.8054241,0.3485247,1,0,2,1,NAN,60,0,o,365,48,52
3,1,1.0,3.0,0.470765,0.3453155,1,1,1,1,NAN,50,0,o,366,55,45
3,2,NAN,3.0,NAN,0.3177785999999999,1,1,1,1,NAN,70,0,o,367,45,55
3,1,1.0,3.0,0.4221534,0.279602,1,1,3,1,NAN,50,0,o,368,51,49
3,1,NAN,3.0,NAN,0.3814207,1,0,3,1,NAN,50,0,o,369,51,49
3,2,1.0,2.0,0.2346516,0.9890414,1,0,1,1,NAN,50,0,i,370,45,55
3,1,1.0,3.0,0.5146237,0.5485678,1,1,1,1,NAN,60,0,o,371,55,45
3,1,NAN,3.0,NAN,0.3181343,1,0,2,1,NAN,60,0,o,372,52,48
3,1,1.0,3.0,0.4890135,0.3793245999999999,1,1,1,1,NAN,60,0,o,373,55,45
3,1,NAN,3.0,NAN,1.1312345,1,0,3,1,NAN,70,0,o,374,51,49
3,1,1.0,3.0,0.5077672000000001,0.379594,1,1,1,1,NAN,70,0,o,375,55,45
3,2,NAN,2.0,NAN,0.7001486,1,1,3,1,NAN,60,0,i,376,49,51
3,1,1.0,3.0,0.9149595,0.3301173,1,1,2,1,NAN,50,0,o,377,52,48
3,1,NAN,3.0,NAN,0.331792,1,0,2,1,NAN,70,0,o,378,52,48
3,2,NAN,3.0,NAN,0.3840398,1,1,3,1,NAN,50,0,o,379,49,51
3,2,NAN,3.0,NAN,0.6851696999999999,1,1,2,1,NAN,50,0,o,380,48,52
3,2,NAN,3.0,NAN,0.4350701,1,1,2,1,NAN,50,0,o,381,48,52
3,2,NAN,3.0,NAN,0.3168482999999999,1,1,1,1,NAN,60,0,o,382,45,55
3,2,1.0,2.0,0.7830794,0.49737,1,0,3,1,NAN,70,0,i,383,49,51
3,1,1.0,2.0,0.4375132,0.3124347,1,1,1,1,NAN,50,0,i,384,55,45
3,2,NAN,3.0,NAN,0.5145373,1,1,2,1,NAN,70,0,o,385,48,52
3,2,NAN,3.0,NAN,0.3496562,1,1,2,1,NAN,60,0,o,386,48,52
3,2,1.0,3.0,0.6058437,0.3314962,1,0,3,1,NAN,60,0,o,387,49,51
3,2,NAN,3.0,NAN,0.3002715,1,1,3,1,NAN,70,0,o,388,49,51
3,1,NAN,3.0,NAN,0.5009155,1,0,2,1,NAN,70,0,o,389,52,48
4,1,NAN,4.0,NAN,0.9465719,1,0,1,1,19.0,60,0,p,0,55,45
4,2,NAN,4.0,NAN,0.4292992999999999,1,1,1,1,19.0,70,0,p,1,45,55
4,2,NAN,4.0,NAN,0.3477318,1,1,2,1,19.0,50,0,p,2,48,52
4,2,NAN,4.0,NAN,0.4292064999999999,1,1,2,1,19.0,70,0,p,3,48,52
4,2,NAN,4.0,NAN,0.6470023,1,1,1,1,19.0,50,0,p,4,45,55
4,1,NAN,4.0,NAN,0.7110329000000001,1,0,1,1,19.0,50,0,p,5,55,45
4,1,NAN,4.0,NAN,0.6470165,1,0,2,1,19.0,60,0,p,6,52,48
4,1,NAN,4.0,NAN,0.562018,1,0,3,1,19.0,50,0,p,7,51,49
4,1,NAN,4.0,NAN,0.8290411,1,0,1,1,19.0,50,0,p,8,55,45
4,1,NAN,4.0,NAN,0.8289451999999999,1,0,3,1,19.0,70,0,p,9,51,49
4,2,NAN,4.0,NAN,0.4147683,1,1,2,1,19.0,60,0,p,10,48,52
4,2,NAN,3.0,NAN,1.4979508999999998,1,1,2,1,19.0,50,0,o,11,48,52
4,1,NAN,4.0,NAN,0.3646272,1,0,3,1,19.0,70,0,p,12,51,49
4,1,NAN,2.0,NAN,1.7632787,1,0,2,1,19.0,60,0,i,13,52,48
4,2,NAN,4.0,NAN,1.32939,1,1,2,1,19.0,60,0,p,14,48,52
4,2,NAN,3.0,NAN,1.196163,1,1,3,1,19.0,70,0,o,15,49,51
4,2,NAN,4.0,NAN,0.4958653,1,1,3,1,19.0,60,0,p,16,49,51
4,2,NAN,4.0,NAN,0.6784020000000001,1,1,3,1,19.0,70,0,p,17,49,51
4,1,NAN,4.0,NAN,1.3794817,1,0,1,1,19.0,70,0,p,21,55,45
4,2,NAN,4.0,NAN,1.0624219,1,1,3,1,19.0,60,0,p,22,49,51
4,2,NAN,4.0,NAN,0.7959055,1,1,1,1,19.0,70,0,p,23,45,55
4,1,1.0,4.0,0.5844351999999999,0.6773361,1,1,2,1,19.0,70,0,p,24,52,48
4,1,NAN,4.0,NAN,0.3957366,1,0,1,1,19.0,60,0,p,25,55,45
4,1,NAN,4.0,NAN,0.9801372,1,0,3,1,19.0,50,0,p,26,51,49
4,2,NAN,4.0,NAN,0.5311269000000001,1,1,3,1,19.0,50,0,p,27,49,51
4,1,1.0,4.0,0.4645166,0.411602,1,1,2,1,19.0,70,0,p,28,52,48
4,1,1.0,4.0,0.7145758000000001,0.3950135,1,1,3,1,19.0,60,0,p,29,51,49
4,2,NAN,4.0,NAN,0.4127518,1,1,3,1,19.0,70,0,p,30,49,51
4,2,NAN,4.0,NAN,0.6294479000000001,1,1,2,1,19.0,60,0,p,31,48,52
4,2,1.0,4.0,0.5013694000000001,0.5098575,1,0,2,1,19.0,70,0,p,32,48,52
4,1,NAN,4.0,NAN,0.3955357,1,0,3,1,19.0,50,0,p,33,51,49
4,1,1.0,3.0,0.7688459,0.7275621,1,1,3,1,19.0,70,0,o,34,51,49
4,1,1.0,4.0,0.6689273,1.1281104,1,1,1,1,19.0,70,0,p,35,55,45
4,1,1.0,4.0,0.4979987,0.3610464,1,1,1,1,19.0,60,0,p,36,55,45
4,2,NAN,4.0,NAN,0.3804913,1,1,1,1,19.0,60,0,p,37,45,55
4,1,1.0,4.0,0.7191623,0.3106743,1,1,2,1,19.0,70,0,p,38,52,48
4,1,1.0,4.0,0.7180014,0.5781301,1,1,1,1,19.0,50,0,p,39,55,45
4,2,NAN,4.0,NAN,0.3628152999999999,1,1,1,1,19.0,50,0,p,40,45,55
4,2,NAN,4.0,NAN,0.3310614999999999,1,1,2,1,19.0,50,0,p,41,48,52
4,1,1.0,4.0,0.4866986,0.5790637,1,1,2,1,19.0,70,0,p,42,52,48
4,2,NAN,4.0,NAN,0.3150571,1,1,1,1,19.0,70,0,p,43,45,55
4,1,1.0,4.0,0.4866817,0.4622242,1,1,1,1,19.0,50,0,p,44,55,45
4,1,1.0,4.0,0.6356970000000001,0.4451693,1,1,2,1,19.0,60,0,p,45,52,48
4,2,NAN,4.0,NAN,0.3470422,1,1,2,1,19.0,60,0,p,46,48,52
4,2,NAN,4.0,NAN,0.3296073,1,1,1,1,19.0,70,0,p,47,45,55
4,2,1.0,4.0,0.2014818,0.5277699,1,0,3,1,19.0,50,0,p,48,49,51
4,1,1.0,4.0,0.7864498000000001,1.2121919,1,1,3,1,19.0,70,0,p,49,51,49
4,2,1.0,4.0,0.7514998,0.6124925,1,0,3,1,19.0,70,0,p,50,49,51
4,2,NAN,4.0,NAN,0.3321616,1,1,3,1,19.0,60,0,p,51,49,51
4,2,1.0,4.0,0.6292962,0.4293992999999999,1,0,3,1,19.0,60,0,p,52,49,51
4,1,NAN,4.0,NAN,0.746632,1,0,2,1,19.0,60,0,p,53,52,48
4,1,1.0,4.0,0.3513189,0.4107329,1,1,3,1,19.0,50,0,p,54,51,49
4,1,NAN,4.0,NAN,0.2977422,1,0,2,1,19.0,50,0,p,55,52,48
4,2,1.0,4.0,0.5841218,0.4112096999999999,1,0,2,1,19.0,50,0,p,56,48,52
4,2,NAN,4.0,NAN,0.5643353,1,1,1,1,19.0,50,0,p,57,45,55
4,1,NAN,4.0,NAN,0.3481101,1,0,3,1,19.0,60,0,p,58,51,49
4,1,1.0,4.0,0.5351621999999999,0.3949569,1,1,1,1,19.0,60,0,p,59,55,45
4,1,1.0,4.0,0.8039694000000001,0.4617595,1,1,2,1,19.0,70,0,p,60,52,48
4,1,NAN,4.0,NAN,0.296475,1,0,2,1,19.0,70,0,p,61,52,48
4,1,NAN,4.0,NAN,0.2974134,1,0,2,1,19.0,60,0,p,62,52,48
4,2,NAN,4.0,NAN,0.3312147,1,1,3,1,19.0,50,0,p,63,49,51
4,1,1.0,4.0,0.3029212,0.511493,1,1,2,1,19.0,60,0,p,64,52,48
4,2,NAN,4.0,NAN,0.2966425,1,1,3,1,19.0,60,0,p,65,49,51
4,2,NAN,4.0,NAN,0.3645734,1,1,3,1,19.0,60,0,p,66,49,51
4,1,1.0,4.0,0.5857548,0.3783881,1,1,1,1,19.0,70,0,p,67,55,45
4,2,NAN,4.0,NAN,0.2977907,1,1,1,1,19.0,50,0,p,68,45,55
4,2,NAN,4.0,NAN,0.5314926999999999,1,1,1,1,19.0,70,0,p,69,45,55
4,1,1.0,4.0,0.902897,0.4794570999999999,1,1,1,1,19.0,60,0,p,70,55,45
4,2,NAN,4.0,NAN,0.4815016,1,1,1,1,19.0,70,0,p,71,45,55
4,1,NAN,4.0,NAN,0.3441034,1,0,1,1,19.0,50,0,p,72,55,45
4,2,NAN,4.0,NAN,0.614228,1,1,1,1,19.0,60,0,p,73,45,55
4,2,NAN,4.0,NAN,0.3637671,1,1,2,1,19.0,60,0,p,74,48,52
4,1,1.0,4.0,0.1909251,0.4787846999999999,1,1,1,1,19.0,60,0,p,75,55,45
4,1,NAN,4.0,NAN,0.3478751,1,0,3,1,19.0,50,0,p,76,51,49
4,2,NAN,4.0,NAN,0.3478087,1,1,2,1,19.0,60,0,p,77,48,52
4,2,NAN,4.0,NAN,0.4811607,1,1,2,1,19.0,70,0,p,78,48,52
4,1,NAN,4.0,NAN,0.4946505999999999,1,0,2,1,19.0,50,0,p,79,52,48
4,1,NAN,4.0,NAN,0.3465427,1,0,3,1,19.0,50,0,p,80,51,49
4,1,1.0,3.0,0.4059459,1.4784621,1,1,3,1,19.0,70,0,o,81,51,49
4,2,NAN,4.0,NAN,0.4817124,1,1,3,1,19.0,70,0,p,82,49,51
4,2,NAN,4.0,NAN,0.3644283,1,1,1,1,19.0,50,0,p,83,45,55
4,1,NAN,4.0,NAN,0.4644193,1,0,3,1,19.0,70,0,p,84,51,49
4,2,1.0,3.0,0.7026526,0.7620172,1,0,2,1,19.0,50,0,o,85,48,52
4,2,NAN,4.0,NAN,0.3314179,1,1,3,1,19.0,70,0,p,86,49,51
4,1,1.0,4.0,0.6858768,0.6112294,1,1,1,1,19.0,50,0,p,87,55,45
4,1,1.0,4.0,0.7679428,0.360759,1,1,3,1,19.0,60,0,p,88,51,49
4,2,NAN,4.0,NAN,0.3305868,1,1,2,1,19.0,50,0,p,89,48,52
4,1,1.0,4.0,0.8694431999999999,0.3450732999999999,1,1,2,1,19.0,50,0,p,90,52,48
4,1,1.0,4.0,0.6022715,0.3118617,1,1,1,1,19.0,50,0,p,91,55,45
4,2,NAN,4.0,NAN,0.4303495,1,1,2,1,19.0,60,0,p,92,48,52
4,2,NAN,4.0,NAN,0.2497856,1,1,2,1,19.0,50,0,p,93,48,52
4,1,1.0,4.0,0.5414079,0.3625228,1,1,3,1,19.0,70,0,p,94,51,49
4,2,NAN,4.0,NAN,0.5645329000000001,1,1,3,1,19.0,60,0,p,95,49,51
4,1,NAN,4.0,NAN,0.3457164,1,0,2,1,19.0,70,0,p,96,52,48
4,2,NAN,4.0,NAN,0.3802592,1,1,1,1,19.0,50,0,p,97,45,55
4,1,1.0,4.0,0.4848275999999999,0.4973849,1,1,3,1,19.0,60,0,p,98,51,49
4,2,NAN,4.0,NAN,0.4327840999999999,1,1,1,1,19.0,70,0,p,99,45,55
4,1,NAN,4.0,NAN,0.431274,1,0,3,1,19.0,50,0,p,100,51,49
4,1,NAN,4.0,NAN,0.3974642,1,0,3,1,19.0,50,0,p,101,51,49
4,2,1.0,3.0,0.7018866,0.7943880999999999,1,0,2,1,19.0,70,0,o,102,48,52
4,1,1.0,4.0,0.7980681,0.8292379000000001,1,1,1,1,19.0,50,0,p,103,55,45
4,2,NAN,4.0,NAN,0.5144826,1,1,2,1,19.0,60,0,p,104,48,52
4,1,1.0,4.0,0.804604,0.964471,1,1,2,1,19.0,60,0,p,107,52,48
4,1,1.0,4.0,0.9380525,0.5122662,1,1,3,1,19.0,70,0,p,108,51,49
4,2,NAN,4.0,NAN,0.4147201,1,1,2,1,19.0,50,0,p,109,48,52
4,2,NAN,4.0,NAN,1.2980047,1,1,1,1,19.0,70,0,p,110,45,55
4,1,1.0,4.0,0.7023394000000001,0.4947447,1,1,2,1,19.0,60,0,p,111,52,48
4,2,NAN,4.0,NAN,0.3295336,1,1,1,1,19.0,50,0,p,112,45,55
4,2,NAN,4.0,NAN,0.6461982,1,1,3,1,19.0,60,0,p,113,49,51
4,2,NAN,4.0,NAN,0.3660782999999999,1,1,3,1,19.0,50,0,p,114,49,51
4,2,NAN,4.0,NAN,0.3483236,1,1,1,1,19.0,60,0,p,115,45,55
4,2,1.0,4.0,0.4758968,0.3958084,1,0,3,1,19.0,70,0,p,116,49,51
4,2,1.0,4.0,0.9181787,0.6617776,1,0,3,1,19.0,70,0,p,117,49,51
4,1,1.0,4.0,0.4559187,0.3764585,1,1,2,1,19.0,70,0,p,118,52,48
4,1,NAN,4.0,NAN,0.1141503999999999,1,0,1,1,19.0,70,0,p,119,55,45
4,2,NAN,4.0,NAN,0.4147020999999999,1,1,1,1,19.0,70,0,p,120,45,55
4,2,1.0,4.0,0.6361800999999999,0.4956888,1,0,3,1,19.0,70,0,p,121,49,51
4,1,NAN,4.0,NAN,0.3320082,1,0,3,1,19.0,70,0,p,122,51,49
4,1,1.0,4.0,0.7844182,0.3969607,1,1,1,1,19.0,70,0,p,123,55,45
4,1,NAN,4.0,NAN,0.3465402999999999,1,0,2,1,19.0,60,0,p,124,52,48
4,1,1.0,3.0,0.9450572,0.6786885,1,1,1,1,19.0,50,0,o,125,55,45
4,1,1.0,4.0,0.786608,0.5127444,1,1,1,1,19.0,60,0,p,126,55,45
4,1,NAN,4.0,NAN,0.3957498,1,0,1,1,19.0,50,0,p,127,55,45
4,1,1.0,4.0,0.8688271999999999,0.5790420000000001,1,1,2,1,19.0,70,0,p,128,52,48
4,2,NAN,4.0,NAN,0.3648431,1,1,1,1,19.0,70,0,p,129,45,55
4,2,NAN,4.0,NAN,0.2988204,1,1,1,1,19.0,60,0,p,130,45,55
4,1,1.0,4.0,0.3700218,0.4473392,1,1,1,1,19.0,60,0,p,131,55,45
4,2,NAN,4.0,NAN,0.333149,1,1,3,1,19.0,50,0,p,132,49,51
4,2,NAN,4.0,NAN,0.3495180999999999,1,1,3,1,19.0,70,0,p,133,49,51
4,2,NAN,4.0,NAN,0.3814258,1,1,1,1,19.0,50,0,p,134,45,55
4,2,1.0,3.0,0.7956121,0.8777511,1,0,2,1,19.0,50,0,o,135,48,52
4,2,NAN,4.0,NAN,0.5132992000000001,1,1,2,1,19.0,70,0,p,136,48,52
4,1,NAN,4.0,NAN,0.3633674,1,0,3,1,19.0,50,0,p,137,51,49
4,2,1.0,3.0,0.6366179,0.662719,1,0,2,1,19.0,60,0,o,138,48,52
4,2,NAN,4.0,NAN,0.6315615,1,1,1,1,19.0,50,0,p,139,45,55
4,2,1.0,4.0,0.5534521,0.9948866,1,0,3,1,19.0,60,0,p,140,49,51
4,1,1.0,4.0,0.8678589,0.3784307,1,1,2,1,19.0,60,0,p,141,52,48
4,2,1.0,4.0,0.5519063,0.3791816,1,0,3,1,19.0,60,0,p,142,49,51
4,2,NAN,4.0,NAN,0.3154034,1,1,2,1,19.0,60,0,p,143,48,52
4,1,1.0,4.0,0.7543474,0.7129422,1,1,3,1,19.0,70,0,p,144,51,49
4,1,NAN,4.0,NAN,0.9177936,1,0,3,1,19.0,60,0,p,146,51,49
4,1,NAN,4.0,NAN,1.0338325000000002,1,0,3,1,19.0,50,0,p,147,51,49
4,2,NAN,4.0,NAN,0.4817522,1,1,2,1,19.0,50,0,p,148,48,52
4,1,1.0,4.0,0.6537196999999999,0.4467422,1,1,2,1,19.0,50,0,p,149,52,48
4,1,NAN,4.0,NAN,0.3480501,1,0,2,1,19.0,70,0,p,150,52,48
4,2,NAN,4.0,NAN,0.5314348000000001,1,1,2,1,19.0,60,0,p,151,48,52
4,1,NAN,NAN,NAN,0.8481103000000001,1,0,1,1,19.0,60,0,h,152,55,45
4,2,NAN,4.0,NAN,0.4481573,1,1,1,1,19.0,70,0,p,153,45,55
4,2,NAN,4.0,NAN,0.3656713,1,1,3,1,19.0,50,0,p,154,49,51
4,2,1.0,4.0,0.4199092,0.7305523,1,0,3,1,19.0,60,0,p,155,49,51
4,2,1.0,4.0,0.8064561,0.3146461,1,0,2,1,19.0,70,0,p,156,48,52
4,2,NAN,4.0,NAN,0.5147652,1,1,2,1,19.0,60,0,p,157,48,52
4,1,NAN,4.0,NAN,0.6480593000000001,1,0,3,1,19.0,70,0,p,158,51,49
4,1,1.0,4.0,0.5862539000000001,0.4938462999999999,1,1,1,1,19.0,60,0,p,159,55,45
4,2,NAN,4.0,NAN,0.4135702999999999,1,1,2,1,19.0,50,0,p,160,48,52
4,2,1.0,4.0,0.5876288000000001,0.812268,1,0,2,1,19.0,50,0,p,161,48,52
4,1,NAN,4.0,NAN,0.5982099,1,0,3,1,19.0,50,0,p,162,51,49
4,1,1.0,4.0,0.3191997,0.596114,1,1,1,1,19.0,50,0,p,163,55,45
4,1,1.0,4.0,0.8695205,0.6128602,1,1,2,1,19.0,70,0,p,164,52,48
4,1,NAN,4.0,NAN,0.3001884,1,0,2,1,19.0,60,0,p,165,52,48
4,2,NAN,4.0,NAN,0.3147469,1,1,1,1,19.0,50,0,p,166,45,55
4,2,NAN,4.0,NAN,0.4830100999999999,1,1,1,1,19.0,50,0,p,167,45,55
4,2,1.0,4.0,0.6871767,0.5287491999999999,1,0,3,1,19.0,70,0,p,168,49,51
4,1,1.0,4.0,0.7191557,0.7109430999999999,1,1,3,1,19.0,70,0,p,169,51,49
4,1,NAN,4.0,NAN,0.3147098,1,0,2,1,19.0,60,0,p,170,52,48
4,2,NAN,4.0,NAN,1.8009171999999998,1,1,1,1,19.0,60,0,p,171,45,55
4,2,1.0,4.0,0.5698803000000001,0.3454783,1,0,3,1,19.0,60,0,p,172,49,51
4,1,NAN,4.0,NAN,0.3148515999999999,1,0,2,1,19.0,50,0,p,173,52,48
4,2,NAN,4.0,NAN,0.0003875,1,1,3,1,19.0,70,0,p,174,49,51
4,1,NAN,4.0,NAN,0.4146130999999999,1,0,3,1,19.0,50,0,p,175,51,49
4,1,NAN,4.0,NAN,0.3645791,1,0,3,1,19.0,60,0,p,176,51,49
4,1,1.0,4.0,0.4511087,0.5452621,1,1,1,1,19.0,70,0,p,177,55,45
4,2,NAN,4.0,NAN,0.7677020999999999,1,1,1,1,19.0,70,0,p,178,45,55
4,1,1.0,4.0,0.4541194999999999,0.5464508000000001,1,1,1,1,19.0,50,0,p,179,55,45
4,1,1.0,4.0,0.7208361,0.5615711999999999,1,1,1,1,19.0,50,0,p,180,55,45
4,2,NAN,4.0,NAN,0.3654991,1,1,2,1,19.0,60,0,p,181,48,52
4,2,NAN,4.0,NAN,0.3314247,1,1,3,1,19.0,60,0,p,182,49,51
4,2,NAN,4.0,NAN,0.3480348,1,1,3,1,19.0,60,0,p,183,49,51
4,1,1.0,4.0,0.3360869,0.3448959,1,1,2,1,19.0,60,0,p,184,52,48
4,1,NAN,4.0,NAN,0.813443,1,0,3,1,19.0,50,0,p,185,51,49
4,2,NAN,4.0,NAN,0.5977859000000001,1,1,2,1,19.0,60,0,p,186,48,52
4,1,1.0,4.0,0.5367739,0.3626314,1,1,1,1,19.0,70,0,p,187,55,45
4,2,NAN,4.0,NAN,0.3314123,1,1,1,1,19.0,70,0,p,188,45,55
4,2,NAN,4.0,NAN,1.0650214,1,1,3,1,19.0,70,0,p,189,49,51
4,2,NAN,4.0,NAN,0.3812895,1,1,3,1,19.0,70,0,p,190,49,51
4,1,NAN,4.0,NAN,0.3980455,1,0,2,1,19.0,70,0,p,191,52,48
4,2,NAN,4.0,NAN,0.1476524,1,1,2,1,19.0,70,0,p,192,48,52
4,2,NAN,4.0,NAN,0.4980739999999999,1,1,2,1,19.0,50,0,p,193,48,52
4,2,NAN,4.0,NAN,0.3673904,1,1,1,1,19.0,60,0,p,194,45,55
4,2,NAN,4.0,NAN,0.3331105,1,1,3,1,19.0,50,0,p,195,49,51
4,1,1.0,4.0,0.270941,0.9785047,1,1,3,1,19.0,70,0,p,196,51,49
4,1,1.0,4.0,0.9628904,0.3445412,1,1,3,1,19.0,50,0,p,197,51,49
4,1,1.0,4.0,0.8689526,0.3112669,1,1,2,1,19.0,60,0,p,198,52,48
4,1,NAN,4.0,NAN,0.3477369,1,0,3,1,19.0,70,0,p,199,51,49
4,2,NAN,4.0,NAN,0.3808824,1,1,1,1,19.0,50,0,p,200,45,55
4,2,NAN,4.0,NAN,0.4314201,1,1,1,1,19.0,70,0,p,201,45,55
4,2,NAN,4.0,NAN,1.0483943,1,1,2,1,19.0,50,0,p,202,48,52
4,1,NAN,4.0,NAN,0.3147007,1,0,2,1,19.0,50,0,p,204,52,48
4,2,NAN,4.0,NAN,0.3982269,1,1,1,1,19.0,50,0,p,205,45,55
4,1,1.0,4.0,0.14917,0.4285452,1,1,1,1,19.0,60,0,p,206,55,45
4,1,NAN,3.0,NAN,0.1652027,1,0,2,1,19.0,70,0,o,207,52,48
4,1,1.0,3.0,0.8017728,0.4782128,1,1,1,1,19.0,50,0,o,208,55,45
4,1,1.0,3.0,0.5358639000000001,0.3113785999999999,1,1,1,1,19.0,60,0,o,209,55,45
4,2,NAN,4.0,NAN,0.3160559,1,1,1,1,19.0,70,0,p,210,45,55
4,1,1.0,4.0,0.8423908000000001,0.2788692,1,1,3,1,19.0,70,0,p,211,51,49
4,1,1.0,4.0,0.6535386999999999,0.2459686,1,1,1,1,19.0,50,0,p,212,55,45
4,1,NAN,4.0,NAN,0.5307542,1,0,2,1,19.0,60,0,p,213,52,48
4,1,1.0,4.0,0.7509100000000001,0.3121125,1,1,2,1,19.0,50,0,p,214,52,48
4,1,1.0,4.0,0.7029107,0.3284313,1,1,2,1,19.0,60,0,p,215,52,48
4,1,NAN,4.0,NAN,0.2636156,1,0,3,1,19.0,70,0,p,216,51,49
4,2,NAN,4.0,NAN,0.3629254,1,1,1,1,19.0,70,0,p,217,45,55
4,2,NAN,4.0,NAN,0.3506467,1,1,2,1,19.0,50,0,p,218,48,52
4,1,1.0,4.0,0.5368331000000001,0.5961718,1,1,2,1,19.0,70,0,p,220,52,48
4,2,NAN,3.0,NAN,0.448103,1,1,3,1,19.0,50,0,o,221,49,51
4,1,1.0,4.0,0.7527047,0.562606,1,1,3,1,19.0,60,0,p,222,51,49
4,2,NAN,4.0,NAN,0.5994666999999999,1,1,3,1,19.0,70,0,p,223,49,51
4,1,NAN,4.0,NAN,0.3629143,1,0,3,1,19.0,50,0,p,224,51,49
4,2,NAN,4.0,NAN,1.2647568,1,1,2,1,19.0,60,0,p,225,48,52
4,2,NAN,4.0,NAN,0.331392,1,1,3,1,19.0,60,0,p,226,49,51
4,1,1.0,3.0,0.4858923,0.7286318,1,1,1,1,19.0,60,0,o,227,55,45
4,1,1.0,3.0,0.768817,0.3290035999999999,1,1,1,1,19.0,50,0,o,228,55,45
4,2,NAN,4.0,NAN,0.3311082,1,1,1,1,19.0,60,0,p,229,45,55
4,2,NAN,4.0,NAN,0.8972874,1,1,2,1,19.0,50,0,p,230,48,52
4,2,NAN,4.0,NAN,0.3627425,1,1,1,1,19.0,50,0,p,231,45,55
4,1,1.0,3.0,0.6696474,0.8618153000000001,1,1,1,1,19.0,60,0,o,232,55,45
4,2,NAN,4.0,NAN,0.3788829999999999,1,1,2,1,19.0,60,0,p,233,48,52
4,2,NAN,4.0,NAN,0.5318455,1,1,3,1,19.0,70,0,p,234,49,51
4,2,NAN,4.0,NAN,0.4155571,1,1,3,1,19.0,60,0,p,235,49,51
4,2,NAN,4.0,NAN,0.3822346,1,1,1,1,19.0,50,0,p,236,45,55
4,2,1.0,4.0,0.2201382999999999,0.6784717,1,0,2,1,19.0,70,0,p,237,48,52
4,1,1.0,4.0,0.6032573,0.3456515,1,1,2,1,19.0,70,0,p,238,52,48
4,1,1.0,4.0,0.6351089,0.2786767,1,1,3,1,19.0,50,0,p,239,51,49
4,1,1.0,4.0,0.5365647,0.4103092,1,1,1,1,19.0,60,0,p,240,55,45
4,1,NAN,4.0,NAN,0.3145827,1,0,3,1,19.0,70,0,p,241,51,49
4,2,NAN,4.0,NAN,0.3164281,1,1,2,1,19.0,60,0,p,242,48,52
4,2,1.0,3.0,0.654277,0.6415281,1,0,2,1,19.0,50,0,o,243,48,52
4,2,NAN,4.0,NAN,0.5150744,1,1,1,1,19.0,70,0,p,244,45,55
4,1,1.0,3.0,0.6192386,0.7113645000000001,1,1,1,1,19.0,50,0,o,245,55,45
4,2,NAN,4.0,NAN,0.4146915,1,1,1,1,19.0,50,0,p,246,45,55
4,1,1.0,3.0,0.768863,0.3949324,1,1,1,1,19.0,60,0,o,247,55,45
4,2,NAN,4.0,NAN,0.3811007,1,1,3,1,19.0,70,0,p,248,49,51
4,1,NAN,4.0,NAN,0.3805499,1,0,2,1,19.0,60,0,p,249,52,48
4,1,NAN,4.0,NAN,0.3814287,1,0,3,1,19.0,50,0,p,250,51,49
4,1,1.0,4.0,0.5846796999999999,0.7292729,1,1,1,1,19.0,70,0,p,251,55,45
4,1,NAN,4.0,NAN,0.3654247,1,0,2,1,19.0,70,0,p,252,52,48
4,1,NAN,3.0,NAN,0.8986936,1,0,2,1,19.0,50,0,o,253,52,48
4,1,NAN,4.0,NAN,0.0814429,1,0,2,1,19.0,70,0,p,254,52,48
4,2,NAN,4.0,NAN,0.8308181999999998,1,1,2,1,19.0,50,0,p,255,48,52
4,2,NAN,4.0,NAN,0.5295291999999999,1,1,1,1,19.0,50,0,p,256,45,55
4,2,NAN,4.0,NAN,0.9789562,1,1,2,1,19.0,60,0,p,257,48,52
4,2,1.0,4.0,0.6213509,0.3613654,1,0,3,1,19.0,60,0,p,258,49,51
4,2,NAN,4.0,NAN,0.398601,1,1,1,1,19.0,60,0,p,259,45,55
4,2,1.0,3.0,0.5875045999999999,0.7630332,1,0,3,1,19.0,50,0,o,260,49,51
4,2,NAN,4.0,NAN,0.8989043,1,1,3,1,19.0,60,0,p,261,49,51
4,1,NAN,4.0,NAN,0.4787808,1,0,1,1,19.0,50,0,p,262,55,45
4,1,1.0,4.0,0.8176425,0.6774083000000001,1,1,2,1,19.0,60,0,p,263,52,48
4,2,NAN,4.0,NAN,0.4818005999999999,1,1,1,1,19.0,70,0,p,264,45,55
4,1,1.0,3.0,0.7364795999999999,0.6120901,1,1,3,1,19.0,60,0,o,265,51,49
4,1,NAN,4.0,NAN,0.4144021,1,0,3,1,19.0,50,0,p,266,51,49
4,2,1.0,3.0,0.935951,0.9948069,1,0,2,1,19.0,70,0,o,267,48,52
4,2,1.0,3.0,0.8526343000000001,0.6607854999999999,1,0,3,1,19.0,70,0,o,269,49,51
4,1,1.0,3.0,0.7358198,0.6454285,1,1,2,1,19.0,50,0,o,270,52,48
4,2,1.0,4.0,0.5683507,0.7114151,1,0,2,1,19.0,60,0,p,271,48,52
4,1,NAN,4.0,NAN,0.3315325,1,0,2,1,19.0,70,0,p,272,52,48
4,1,NAN,3.0,NAN,1.1645431999999998,1,0,2,1,19.0,70,0,o,273,52,48
4,1,1.0,3.0,0.669454,0.5781828,1,1,1,1,19.0,60,0,o,274,55,45
4,2,NAN,4.0,NAN,0.3481414,1,1,2,1,19.0,60,0,p,275,48,52
4,2,NAN,4.0,NAN,0.3648201,1,1,1,1,19.0,60,0,p,276,45,55
4,1,1.0,4.0,0.6551231,0.6466947,1,1,1,1,19.0,60,0,p,277,55,45
4,1,NAN,4.0,NAN,0.3650872,1,0,3,1,19.0,60,0,p,278,51,49
4,1,NAN,4.0,NAN,0.364591,1,0,1,1,19.0,50,0,p,279,55,45
4,1,1.0,3.0,0.5510459,0.8950885000000001,1,1,1,1,19.0,70,0,o,280,55,45
4,1,NAN,3.0,NAN,0.2313636,1,0,3,1,19.0,50,0,o,281,51,49
4,1,NAN,3.0,NAN,0.6343608000000001,1,0,3,1,19.0,70,0,o,282,51,49
4,2,NAN,3.0,NAN,1.6004232,1,1,3,1,19.0,60,0,o,283,49,51
4,1,NAN,3.0,NAN,0.631861,1,0,1,1,19.0,50,0,o,284,55,45
4,1,1.0,3.0,0.5749695,0.4619246,1,1,2,1,19.0,60,0,o,285,52,48
4,1,NAN,4.0,NAN,0.5817145,1,0,2,1,19.0,60,0,p,286,52,48
4,2,NAN,4.0,NAN,0.4298050999999999,1,1,3,1,19.0,70,0,p,287,49,51
4,2,1.0,4.0,0.6355016,0.5111060000000001,1,0,3,1,19.0,70,0,p,288,49,51
4,2,NAN,4.0,NAN,0.345933,1,1,3,1,19.0,60,0,p,289,49,51
4,2,NAN,4.0,NAN,0.3673195,1,1,2,1,19.0,70,0,p,290,48,52
4,1,NAN,4.0,NAN,0.2171481,1,0,3,1,19.0,70,0,p,291,51,49
4,2,NAN,4.0,NAN,0.3993169,1,1,2,1,19.0,50,0,p,292,48,52
4,1,1.0,4.0,0.8351110999999999,0.3787403,1,1,3,1,19.0,50,0,p,293,51,49
4,2,NAN,4.0,NAN,0.4981411,1,1,1,1,19.0,50,0,p,294,45,55
4,2,NAN,4.0,NAN,0.3649353,1,1,1,1,19.0,70,0,p,295,45,55
4,2,NAN,4.0,NAN,0.5647135999999999,1,1,1,1,19.0,70,0,p,296,45,55
4,2,NAN,3.0,NAN,0.3813716,1,1,3,1,19.0,50,0,o,297,49,51
4,2,NAN,4.0,NAN,0.6487918,1,1,2,1,19.0,50,0,p,298,48,52
4,2,NAN,3.0,NAN,0.948262,1,1,1,1,19.0,50,0,o,299,45,55
4,1,1.0,3.0,0.7631604999999999,1.1454988000000002,1,1,3,1,19.0,50,0,o,300,51,49
4,1,NAN,4.0,NAN,0.4326441,1,0,2,1,19.0,50,0,p,301,52,48
4,1,1.0,3.0,0.6374085,0.3635957,1,1,1,1,19.0,50,0,o,302,55,45
4,2,NAN,4.0,NAN,0.3988172,1,1,1,1,19.0,60,0,p,303,45,55
4,2,NAN,4.0,NAN,0.1153964999999999,1,1,2,1,19.0,50,0,p,304,48,52
4,2,NAN,4.0,NAN,0.2966237,1,1,1,1,19.0,70,0,p,305,45,55
4,2,1.0,4.0,0.3036321,0.6616283000000001,1,0,2,1,19.0,60,0,p,306,48,52
4,1,NAN,3.0,NAN,0.3838872,1,0,3,1,19.0,60,0,o,307,51,49
4,1,NAN,3.0,NAN,0.3656302999999999,1,0,3,1,19.0,70,0,o,308,51,49
4,2,NAN,4.0,NAN,0.4147832999999999,1,1,3,1,19.0,50,0,p,309,49,51
4,2,NAN,4.0,NAN,1.3978649,1,1,3,1,19.0,60,0,p,310,49,51
4,2,NAN,4.0,NAN,0.3147489,1,1,1,1,19.0,50,0,p,311,45,55
4,1,1.0,4.0,0.5847856,0.7451773,1,1,1,1,19.0,70,0,p,312,55,45
4,2,NAN,4.0,NAN,0.3644587999999999,1,1,1,1,19.0,50,0,p,313,45,55
4,2,NAN,4.0,NAN,0.3167063,1,1,3,1,19.0,70,0,p,314,49,51
4,2,NAN,4.0,NAN,1.0168881,1,1,2,1,19.0,60,0,p,315,48,52
4,2,1.0,3.0,0.9049971,0.7812998999999999,1,0,2,1,19.0,50,0,o,316,48,52
4,1,1.0,3.0,0.6208095,0.4474833,1,1,2,1,19.0,60,0,o,317,52,48
4,1,1.0,3.0,0.5705332,0.4942314999999999,1,1,1,1,19.0,60,0,o,318,55,45
4,1,NAN,4.0,NAN,0.5156143,1,0,2,1,19.0,60,0,p,319,52,48
4,1,1.0,4.0,0.6537116,0.5956768,1,1,3,1,19.0,70,0,p,320,51,49
4,1,NAN,4.0,NAN,0.6479,1,0,1,1,19.0,60,0,p,321,55,45
4,1,1.0,4.0,0.4028234,0.6972609000000001,1,1,2,1,19.0,70,0,p,322,52,48
4,2,1.0,4.0,0.921077,0.6645185,1,0,3,1,19.0,60,0,p,323,49,51
4,2,NAN,4.0,NAN,0.8502599000000001,1,1,2,1,19.0,70,0,p,324,48,52
4,1,1.0,4.0,0.7201479000000001,0.8132189000000001,1,1,3,1,19.0,50,0,p,325,51,49
4,1,NAN,4.0,NAN,0.4829145,1,0,2,1,19.0,70,0,p,326,52,48
4,2,NAN,4.0,NAN,0.4167117,1,1,3,1,19.0,70,0,p,327,49,51
4,2,NAN,4.0,NAN,0.3506571,1,1,1,1,19.0,70,0,p,328,45,55
4,1,1.0,4.0,0.7700807,0.4113385,1,1,1,1,19.0,50,0,p,329,55,45
4,2,NAN,4.0,NAN,0.3479917999999999,1,1,2,1,19.0,50,0,p,330,48,52
4,1,1.0,4.0,0.4881781,0.398038,1,1,3,1,19.0,50,0,p,331,51,49
4,2,NAN,4.0,NAN,0.2978763,1,1,1,1,19.0,50,0,p,332,45,55
4,1,1.0,4.0,0.4542395999999999,0.2962495999999999,1,1,3,1,19.0,70,0,p,333,51,49
4,1,1.0,4.0,0.3702244,0.2951992,1,1,2,1,19.0,50,0,p,334,52,48
4,2,NAN,4.0,NAN,0.314757,1,1,2,1,19.0,70,0,p,335,48,52
4,1,1.0,3.0,0.6050189,0.7453571999999999,1,1,3,1,19.0,60,0,o,336,51,49
4,2,NAN,4.0,NAN,0.4482744000000001,1,1,3,1,19.0,50,0,p,337,49,51
4,1,1.0,4.0,0.5713102,0.3636627999999999,1,1,3,1,19.0,50,0,p,338,51,49
4,2,NAN,4.0,NAN,0.4686672,1,1,1,1,19.0,60,0,p,339,45,55
4,1,1.0,4.0,0.9207076,0.7451883,1,1,1,1,19.0,60,0,p,340,55,45
4,2,NAN,4.0,NAN,0.2813954,1,1,3,1,19.0,70,0,p,341,49,51
4,1,1.0,3.0,0.7537731,0.4960681999999999,1,1,1,1,19.0,60,0,o,342,55,45
4,1,1.0,4.0,0.7761272,0.5786478,1,1,2,1,19.0,60,0,p,343,52,48
4,1,NAN,4.0,NAN,0.3650127999999999,1,0,1,1,19.0,50,0,p,344,55,45
4,2,NAN,4.0,NAN,0.5834092,1,1,1,1,19.0,70,0,p,345,45,55
4,1,NAN,4.0,NAN,0.5005742,1,0,2,1,19.0,70,0,p,346,52,48
4,1,1.0,4.0,0.3548509,0.4643233,1,1,2,1,19.0,70,0,p,347,52,48
4,2,NAN,4.0,NAN,0.5980138,1,1,3,1,19.0,60,0,p,348,49,51
4,2,NAN,4.0,NAN,0.3476039,1,1,3,1,19.0,70,0,p,349,49,51
4,1,1.0,4.0,0.4359824,0.3970886,1,1,2,1,19.0,60,0,p,350,52,48
4,2,1.0,4.0,0.7375562,0.4954404,1,0,2,1,19.0,60,0,p,351,48,52
4,2,NAN,4.0,NAN,0.3818199,1,1,1,1,19.0,50,0,p,352,45,55
4,1,1.0,4.0,0.4443781,0.2966507,1,1,1,1,19.0,50,0,p,353,55,45
4,2,1.0,4.0,0.6391602,0.3147075,1,0,3,1,19.0,60,0,p,354,49,51
4,1,1.0,4.0,0.7373513,0.2148598,1,1,1,1,19.0,70,0,p,355,55,45
4,2,NAN,4.0,NAN,0.7145825,1,1,2,1,19.0,50,0,p,356,48,52
4,1,1.0,4.0,0.7053687,0.5782298,1,1,3,1,19.0,70,0,p,357,51,49
4,2,NAN,4.0,NAN,0.3167995999999999,1,1,1,1,19.0,70,0,p,358,45,55
4,2,NAN,4.0,NAN,0.6148236999999999,1,1,2,1,19.0,60,0,p,359,48,52
4,1,1.0,4.0,0.5984939,0.3298016,1,1,3,1,19.0,70,0,p,360,51,49
4,2,NAN,4.0,NAN,0.6297232,1,1,1,1,19.0,50,0,p,361,45,55
4,1,1.0,4.0,0.5377555,0.2301393999999999,1,1,1,1,19.0,60,0,p,362,55,45
4,1,1.0,4.0,0.5729909000000001,0.213175,1,1,1,1,19.0,70,0,p,363,55,45
4,2,NAN,4.0,NAN,0.3171748,1,1,1,1,19.0,70,0,p,364,45,55
4,2,1.0,4.0,0.7520689,0.4470772,1,0,3,1,19.0,50,0,p,365,49,51
4,1,NAN,4.0,NAN,0.3993029,1,0,3,1,19.0,50,0,p,366,51,49
4,1,1.0,4.0,0.7048215,0.2795362,1,1,2,1,19.0,70,0,p,367,52,48
4,1,NAN,4.0,NAN,0.2967911,1,0,3,1,19.0,50,0,p,368,51,49
4,2,1.0,4.0,0.4879734,0.2280572,1,0,3,1,19.0,70,0,p,369,49,51
4,2,NAN,4.0,NAN,0.45045,1,1,2,1,19.0,60,0,p,370,48,52
4,2,NAN,4.0,NAN,0.3999705,1,1,2,1,19.0,60,0,p,371,48,52
4,1,1.0,4.0,0.3027408,0.2632077,1,1,1,1,19.0,50,0,p,372,55,45
4,1,NAN,4.0,NAN,0.3169942999999999,1,0,2,1,19.0,60,0,p,373,52,48
4,2,1.0,4.0,0.3584139,0.2636354,1,0,3,1,19.0,60,0,p,374,49,51
4,2,NAN,4.0,NAN,0.1505019,1,1,2,1,19.0,50,0,p,375,48,52
4,2,NAN,4.0,NAN,0.51302,1,1,1,1,19.0,60,0,p,376,45,55
4,2,NAN,4.0,NAN,0.3995362999999999,1,1,1,1,19.0,50,0,p,377,45,55
4,1,1.0,4.0,0.3697137,0.414491,1,1,2,1,19.0,60,0,p,378,52,48
4,1,1.0,4.0,0.4388789,0.310956,1,1,3,1,19.0,60,0,p,379,51,49
4,1,NAN,4.0,NAN,0.3843992,1,0,3,1,19.0,70,0,p,380,51,49
4,2,NAN,4.0,NAN,0.4671478,1,1,3,1,19.0,70,0,p,381,49,51
4,1,NAN,4.0,NAN,0.3314804,1,0,1,1,19.0,50,0,p,382,55,45
4,2,NAN,4.0,NAN,0.2670648,1,1,2,1,19.0,50,0,p,383,48,52
4,2,NAN,4.0,NAN,0.284012,1,1,3,1,19.0,60,0,p,384,49,51
4,1,1.0,4.0,0.5376842,0.4106809,1,1,2,1,19.0,70,0,p,385,52,48
4,2,NAN,4.0,NAN,0.9343002,1,1,2,1,19.0,70,0,p,386,48,52
4,1,1.0,4.0,0.3216167,0.2143018,1,1,1,1,19.0,60,0,p,387,55,45
4,2,1.0,4.0,0.4713074,0.3786895,1,0,1,1,19.0,70,0,p,388,45,55
4,1,1.0,4.0,0.3652205999999999,0.2798992,1,1,2,1,19.0,50,0,p,389,52,48
5,2,1.0,4.0,0.6844756999999999,0.5431041,2,1,1,1,19.0,50,0,p,0,45,55
5,1,NAN,4.0,NAN,0.5304099,2,1,1,1,19.0,50,0,p,1,55,45
5,2,1.0,3.0,0.7865696,0.6956609,2,1,2,1,19.0,50,0,o,2,48,52
5,1,1.0,4.0,0.5556637,0.2956793,2,0,3,1,19.0,70,0,p,4,51,49
5,2,1.0,4.0,0.5859959,0.3447430999999999,2,1,1,1,19.0,70,0,p,5,45,55
5,2,NAN,3.0,NAN,0.313467,2,0,2,1,19.0,60,0,o,6,48,52
5,1,NAN,3.0,NAN,0.2971741,2,1,3,1,19.0,50,0,o,7,51,49
5,1,NAN,4.0,NAN,0.5470734,2,1,2,1,19.0,50,0,p,8,52,48
5,2,1.0,4.0,0.6510239999999999,0.4272744,2,1,1,1,19.0,50,0,p,9,45,55
5,1,NAN,3.0,NAN,0.8479851,2,1,2,1,19.0,60,0,o,10,52,48
5,2,1.0,4.0,0.5914116999999999,0.3291382,2,1,3,1,19.0,70,0,p,11,49,51
5,2,NAN,3.0,NAN,0.6651557,2,0,2,1,19.0,70,0,o,12,48,52
5,1,NAN,3.0,NAN,0.8135547,2,1,2,1,19.0,70,0,o,13,52,48
5,2,1.0,4.0,0.4340704000000001,0.2945272,2,1,1,1,19.0,60,0,p,14,45,55
5,2,1.0,3.0,0.9136089,0.5617893,2,1,2,1,19.0,50,0,o,15,48,52
5,2,NAN,4.0,NAN,1.163535,2,0,3,1,19.0,60,0,p,16,49,51
5,2,NAN,4.0,NAN,0.9631856,2,0,1,1,19.0,70,0,p,17,45,55
5,1,NAN,4.0,NAN,0.8649319,2,1,2,1,19.0,60,0,p,18,52,48
5,1,NAN,4.0,NAN,0.764651,2,1,3,1,19.0,50,0,p,19,51,49
5,2,NAN,3.0,NAN,0.6820116,2,0,3,1,19.0,70,0,o,20,49,51
5,1,NAN,4.0,NAN,0.3801279,2,1,2,1,19.0,70,0,p,21,52,48
5,2,NAN,2.0,NAN,0.3987369,2,0,2,1,19.0,60,0,i,22,48,52
5,2,NAN,3.0,NAN,0.5137351,2,0,3,1,19.0,60,0,o,23,49,51
5,1,NAN,3.0,NAN,0.3973395999999999,2,1,1,1,19.0,60,0,o,24,55,45
5,1,NAN,4.0,NAN,0.4309114,2,1,1,1,19.0,60,0,p,25,55,45
5,1,NAN,3.0,NAN,0.6315938,2,1,3,1,19.0,60,0,o,26,51,49
5,1,1.0,4.0,0.6388265000000001,0.6290661999999999,2,0,3,1,19.0,70,0,p,27,51,49
5,1,NAN,4.0,NAN,0.0069828,2,1,1,1,19.0,70,0,p,28,55,45
5,1,NAN,4.0,NAN,1.5308984,2,1,1,1,19.0,50,0,p,29,55,45
5,1,NAN,3.0,NAN,0.4474166,2,1,3,1,19.0,50,0,o,30,51,49
5,2,1.0,4.0,0.8364235999999999,0.5448029999999999,2,1,3,1,19.0,70,0,p,31,49,51
5,2,1.0,4.0,0.6687769,0.5783279,2,1,1,1,19.0,50,0,p,32,45,55
5,1,NAN,3.0,NAN,0.6462878000000001,2,1,2,1,19.0,50,0,o,33,52,48
5,1,NAN,4.0,NAN,0.3313138,2,1,3,1,19.0,70,0,p,34,51,49
5,2,NAN,3.0,NAN,0.2674342,2,0,3,1,19.0,50,0,o,35,49,51
5,1,1.0,4.0,0.4867101,0.5126655,2,0,3,1,19.0,70,0,p,36,51,49
5,1,NAN,4.0,NAN,0.5145913,2,1,1,1,19.0,60,0,p,37,55,45
5,1,1.0,4.0,0.7362695,0.4627755,2,0,3,1,19.0,50,0,p,38,51,49
5,2,NAN,4.0,NAN,0.6981928000000001,2,0,3,1,19.0,70,0,p,39,49,51
5,2,NAN,4.0,NAN,0.4477994,2,0,2,1,19.0,50,0,p,40,48,52
5,2,1.0,4.0,0.5394631999999999,0.378091,2,1,1,1,19.0,70,0,p,41,45,55
5,2,1.0,4.0,0.7028734999999999,0.5127023,2,1,2,1,19.0,60,0,p,42,48,52
5,1,NAN,3.0,NAN,0.7484979,2,1,2,1,19.0,70,0,o,43,52,48
5,1,1.0,4.0,0.7481449,0.3626357999999999,2,0,2,1,19.0,60,0,p,44,52,48
5,2,NAN,3.0,NAN,0.0474134,2,0,3,1,19.0,60,0,o,45,49,51
5,1,NAN,3.0,NAN,0.8643143,2,1,1,1,19.0,70,0,o,46,55,45
5,1,NAN,3.0,NAN,0.5295772,2,1,3,1,19.0,60,0,o,47,51,49
5,2,1.0,4.0,0.5658745,0.4517895999999999,2,1,1,1,19.0,70,0,p,48,45,55
5,2,1.0,4.0,0.5712008000000001,0.4127953,2,1,1,1,19.0,60,0,p,49,45,55
5,2,1.0,3.0,0.6055347,0.5477443000000001,2,1,2,1,19.0,60,0,o,50,48,52
5,1,NAN,4.0,NAN,0.467501,2,1,1,1,19.0,50,0,p,51,55,45
5,1,NAN,4.0,NAN,0.6003170999999999,2,1,2,1,19.0,70,0,p,52,52,48
5,1,NAN,4.0,NAN,0.5980933,2,1,1,1,19.0,50,0,p,53,55,45
5,2,1.0,3.0,0.6688107,0.6460391,2,1,2,1,19.0,50,0,o,54,48,52
5,1,1.0,3.0,0.6852140999999999,0.6464804,2,0,2,1,19.0,60,0,o,55,52,48
5,2,1.0,4.0,0.635931,0.5263488000000001,2,1,2,1,19.0,70,0,p,56,48,52
5,1,NAN,3.0,NAN,0.5670670999999999,2,1,1,1,19.0,60,0,o,57,55,45
5,2,NAN,3.0,NAN,0.8315031999999999,2,0,3,1,19.0,60,0,o,58,49,51
5,2,1.0,4.0,0.2998134,0.4306045,2,1,1,1,19.0,50,0,p,59,45,55
5,1,NAN,4.0,NAN,0.5171517,2,1,1,1,19.0,50,0,p,60,55,45
5,1,NAN,4.0,NAN,0.56443,2,1,1,1,19.0,60,0,p,61,55,45
5,2,1.0,3.0,0.5583001999999999,0.6622085,2,1,1,1,19.0,70,0,o,62,45,55
5,1,NAN,3.0,NAN,0.7507188,2,1,2,1,19.0,70,0,o,63,52,48
5,1,1.0,4.0,0.5561155,0.4633914,2,0,2,1,19.0,50,0,p,64,52,48
5,2,1.0,3.0,0.6207517,0.7457988,2,1,3,1,19.0,60,0,o,65,49,51
5,2,1.0,4.0,0.5542906999999999,0.3475244,2,1,2,1,19.0,70,0,p,66,48,52
5,2,1.0,4.0,0.3885790999999999,0.3746970999999999,2,1,1,1,19.0,60,0,p,67,45,55
5,2,NAN,3.0,NAN,0.7991435,2,0,3,1,19.0,70,0,o,68,49,51
5,2,1.0,4.0,0.6560658,0.4790179,2,1,1,1,19.0,50,0,p,69,45,55
5,1,1.0,4.0,0.6703828000000001,0.4304210999999999,2,0,2,1,19.0,60,0,p,70,52,48
5,2,1.0,4.0,0.6081118000000001,0.4630601,2,1,2,1,19.0,60,0,p,71,48,52
5,2,1.0,3.0,0.5862835,0.6291534000000001,2,1,3,1,19.0,70,0,o,72,49,51
5,1,NAN,4.0,NAN,0.3974497,2,1,1,1,19.0,60,0,p,73,55,45
5,2,1.0,4.0,0.5716405,0.4272483,2,1,1,1,19.0,70,0,p,74,45,55
5,2,NAN,3.0,NAN,0.4179746,2,0,2,1,19.0,50,0,o,75,48,52
5,1,NAN,3.0,NAN,0.3342,2,1,2,1,19.0,60,0,o,76,52,48
5,1,NAN,3.0,NAN,0.3306720999999999,2,1,1,1,19.0,70,0,o,77,55,45
5,1,1.0,3.0,0.6080314,0.6124156,2,0,3,1,19.0,50,0,o,78,51,49
5,2,1.0,3.0,0.6691303000000001,0.5462406999999999,2,1,3,1,19.0,50,0,o,79,49,51
5,2,1.0,3.0,0.4863414000000001,0.4790791,2,1,1,1,19.0,50,0,o,80,45,55
5,1,NAN,3.0,NAN,0.5999511,2,1,3,1,19.0,50,0,o,81,51,49
5,1,NAN,3.0,NAN,0.3012862,2,1,3,1,19.0,60,0,o,82,51,49
5,1,NAN,4.0,NAN,0.2817014,2,1,1,1,19.0,50,0,p,83,55,45
5,1,1.0,3.0,0.3237853,0.5125586,2,0,2,1,19.0,70,0,o,84,52,48
5,2,1.0,4.0,0.7039304,0.4315194,2,1,2,1,19.0,60,0,p,85,48,52
5,2,1.0,3.0,0.7219747,0.4464952,2,1,3,1,19.0,60,0,o,86,49,51
5,1,NAN,3.0,NAN,0.6480638000000001,2,1,3,1,19.0,70,0,o,87,51,49
5,1,1.0,3.0,0.6217722,0.4281695,2,0,3,1,19.0,70,0,o,88,51,49
5,2,NAN,3.0,NAN,0.4938055999999999,2,0,2,1,19.0,50,0,o,89,48,52
5,2,1.0,4.0,0.6688563,0.6969743,2,1,2,1,19.0,60,0,p,90,48,52
5,2,NAN,3.0,NAN,0.4674532999999999,2,0,3,1,19.0,70,0,o,91,49,51
5,2,1.0,4.0,0.5362701999999999,0.2625457,2,1,1,1,19.0,70,0,p,92,45,55
5,2,1.0,3.0,0.6698552,0.3457848,2,1,3,1,19.0,60,0,o,93,49,51
