Subj_idx,Block,Trial_in_block,Trial,Stimulus,RT_start,Response,Confidence,RT_conf,ErrorDirection,RT_error
1,1,1,1,2.1,1.6347,1.3304,2,2.3045,0,1.8267
1,1,2,2,2.1,1.1897,1.8649,2,2.5744,0,1.626
1,1,3,3,2.1,2.764,1.8337,1,5.2662,0,0.59032
1,1,4,4,2.1,1.9303,1.8571,1,2.8775,0,2.5393
1,1,5,5,2.1,2.2515,1.6712,1,2.9523,0,1.3614
1,1,6,6,2.1,1.2025,1.985,3,1.5424,1,3.3641
1,1,7,7,2.1,0.94547,1.9392,3,0.92837,1,1.1847
1,1,8,8,2.1,0.96528,1.9134,2,2.7412,1,1.2432
1,1,9,9,2.1,1.4051,1.9078,2,1.7407,0,0.51486
1,1,10,10,2.1,0.67507,1.6881,2,2.0985,0,0.84627
1,1,11,11,2.1,0.55031,1.9967,3,1.3905,1,1.191
1,1,12,12,2.1,0.71266,1.8495,3,0.68634,1,0.74907
1,1,13,13,2.1,0.74249,1.9243,2,1.4588,1,0.94501
1,1,14,14,2.1,5.5425,1.6789,1,2.3265,0,3.001
1,1,15,15,2.1,0.82983,1.9629,3,2.3192,1,1.0477
1,1,16,16,2.1,0.70169,2.03,3,1.7448,0,1.0583
1,1,17,17,2.1,0.61476,1.9824,3,1.5626,1,0.64325
1,1,18,18,2.1,3.5118,1.8406,1,3.3259,1,1.7601
1,1,19,19,2.1,0.77083,1.7286,1,0.97932,0,0.80922
1,1,20,20,2.1,3.9914,2.1283,1,0.78745,0,0.76187
1,1,21,21,2.1,0.53588,1.48,3,1.123,0,1.36
1,1,22,22,2.1,0.56597,1.6801,2,1.269,0,1.2079
1,1,23,23,2.1,0.47855,1.4791,2,1.3032,0,1.0053
1,1,24,24,2.1,0.65682,2.0584,3,1.4814,1,0.83225
1,1,25,25,2.1,0.69346,1.7356,3,1.1832,1,0.82311
1,1,26,26,2.1,0.4055,1.8995,1,1.272,0,0.68196
1,1,27,27,2.1,0.62318,1.2708,1,2.0532,0,1.0381
1,1,28,28,2.1,1.0248,2.1262,3,1.0776,0,1.5325
1,1,29,29,2.1,0.65487,1.5731,2,0.6606,0,0.46336
1,1,30,30,2.1,0.67655,2.1067,3,1.4351,0,1.5667
1,1,31,31,2.1,0.83211,2.5101,2,1.7636,0,0.68972
1,1,32,32,2.1,0.72175,1.7626,2,3.9912,0,1.2048
1,1,33,33,2.1,0.9095,1.6323,1,1.4742,0,0.91925
1,1,34,34,2.1,0.24105,1.6904,1,1.2563,0,0.53646
1,1,35,35,2.1,0.62859,2.0746,3,1.3367,1,0.5324
1,1,36,36,2.1,0.60915,2.0487,3,1.5741,1,0.40223
1,1,37,37,2.1,0.44315,1.8132,2,0.94249,0,0.87715
1,1,38,38,2.1,0.67546,1.5773,2,1.7546,0,0.50104
1,1,39,39,2.1,0.50376,1.8191,3,1.5899,1,0.63779
1,1,40,40,2.1,0.35616,2.0146,2,1.0877,1,2.2134
1,1,41,41,2.1,0.46934,2.0768,2,1.3941,1,1.1362
1,1,42,42,2.1,0.76222,1.7936,2,1.4848,0,0.61041
1,1,43,43,2.1,1.0623,1.8158,2,1.2371,0,1.2775
1,1,44,44,2.1,0.46209,2.0868,3,1.3419,0,1.2705
1,1,45,45,2.1,0.60707,1.9233,2,3.2473,0,2.0691
1,1,46,46,2.1,0.37657,2.3203,2,2.0396,0,1.963
1,1,47,47,2.1,0.50791,1.8345,3,0.83362,0,1.0048
1,1,48,48,2.1,0.32607,2.1621,1,1.1809,0,1.6876
1,1,49,49,2.1,0.88085,2.1443,1,0.39326,1,1.0045
1,1,50,50,2.1,0.26724,1.9186,1,1.0931,0,1.0141
1,1,51,51,2.1,1.1436,2.3862,2,1.1155,1,0.4181
1,1,52,52,2.1,0.80988,1.9135,1,2.45,0,1.4607
1,1,53,53,2.1,0.48548,2.4367,2,1.1158,1,0.53086
1,1,54,54,2.1,0.40626,1.8443,3,1.2826,1,0.41693
1,1,55,55,2.1,0.54864,2.0217,3,0.96051,0,0.83448
1,1,56,56,2.1,0.56448,1.8969,2,1.5617,0,0.93468
1,1,57,57,2.1,0.40189,2.2669,2,1.8448,1,1.7106
1,1,58,58,2.1,0.53919,2.677,2,5.9253,0,0.76769
1,1,59,59,2.1,0.32978,2.7741,1,1.4446,1,0.90165
1,1,60,60,2.1,0.51081,1.8263,1,1.2918,1,0.89937
2,1,1,1,2.1,1.2567,1.686,2,2.0835,0,1.9808
2,1,2,2,2.1,0.68178,1.4699,2,4.3693,1,2.1378
2,1,3,3,2.1,0.84389,1.6679,2,2.904,0,1.5308
2,1,4,4,2.1,0.78803,1.6504,3,3.0838,1,2.8943
2,1,5,5,2.1,1.5907,1.8411,3,3.7441,0,1.9396
2,1,6,6,2.1,8.7025,6.114,1,3.05,1,2.2866
2,1,7,7,2.1,1.3767,1.8239,3,2.403,0,2.0051
2,1,8,8,2.1,0.89549,1.702,2,1.8587,1,0.30178
2,1,9,9,2.1,0.52414,1.4069,2,2.247,1,0.30412
2,1,10,10,2.1,0.5897,1.3145,1,2.0818,0,2.3993
2,1,11,11,2.1,0.47013,2.2698,3,1.3289,1,0.77908
2,1,12,12,2.1,1.4672,1.8468,3,1.7979,1,0.79109
2,1,13,13,2.1,0.54777,2.088,2,3.7398,0,1.4404
2,1,14,14,2.1,0.5721,1.9443,2,2.1145,1,1.7576
2,1,15,15,2.1,0.81389,2.2891,2,2.3555,0,0.5567
2,1,16,16,2.1,0.81718,2.399,2,2.1919,0,1.3248
2,1,17,17,2.1,0.47064,1.9765,3,1.8772,1,1.3155
2,1,18,18,2.1,2.7704,1.9864,3,1.5562,0,0.91872
2,1,19,19,2.1,0.60402,1.9551,3,2.0185,0,1.0374
2,1,20,20,2.1,0.47061,2.2586,2,2.0671,1,2.0804
2,1,21,21,2.1,0.55472,1.8766,2,1.1461,0,1.0005
2,1,22,22,2.1,0.70286,1.9528,2,1.6449,1,1.7676
2,1,23,23,2.1,0.47353,1.6309,2,1.3381,0,0.73737
2,1,24,24,2.1,0.56503,1.7972,2,3.3504,1,0.46324
2,1,25,25,2.1,0.57623,1.8129,2,0.70632,0,0.97668
2,1,26,26,2.1,0.38037,1.8795,2,1.3345,1,0.47658
2,1,27,27,2.1,0.4862,2.2237,2,0.8382,1,0.4031
2,1,28,28,2.1,0.50544,1.6738,3,0.97512,1,0.83269
2,1,29,29,2.1,0.61138,1.7146,3,1.7527,1,0.43075
2,1,30,30,2.1,0.43602,1.8972,3,1.6065,0,0.97402
2,1,31,31,2.1,0.65522,2.2033,3,1.7677,0,1.9257
2,1,32,32,2.1,0.55779,2.4083,2,1.2224,1,0.68211
2,1,33,33,2.1,0.60481,1.9776,2,0.74165,0,0.59745
2,1,34,34,2.1,0.45128,1.7486,3,1.2939,1,0.60759
2,1,35,35,2.1,0.56507,2.3376,3,0.83519,1,1.2314
2,1,36,36,2.1,0.40613,1.5857,2,0.66788,0,2.052
2,1,37,37,2.1,0.41465,1.9877,3,0.85982,0,1.6886
2,1,38,38,2.1,0.83,1.6478,3,1.9443,0,0.22474
2,1,39,39,2.1,0.53033,1.7046,3,3.3917,0,3.5254
2,1,40,40,2.1,0.44804,2.6638,1,2.3293,1,0.91114
2,1,41,41,2.1,0.54865,1.9326,2,2.8899,0,1.5564
2,1,42,42,2.1,0.4937,2.1523,2,1.3746,0,0.8081
2,1,43,43,2.1,0.52929,2.3452,2,1.0346,0,1.5351
2,1,44,44,2.1,0.48889,1.7542,2,1.0285,0,0.41908
2,1,45,45,2.1,0.43181,1.7408,2,0.64988,0,0.50928
2,1,46,46,2.1,0.38574,1.8288,2,0.61438,0,0.46407
2,1,47,47,2.1,0.47089,1.663,3,1.4595,0,1.1921
2,1,48,48,2.1,0.55467,2.4956,2,1.8895,1,0.35536
2,1,49,49,2.1,0.59411,2.6239,2,1.9631,0,0.74493
2,1,50,50,2.1,0.75218,2.0533,2,0.70143,0,2.0069
2,1,51,51,2.1,0.69009,2.0801,2,0.91288,1,0.81011
2,1,52,52,2.1,0.55966,1.9375,2,0.89242,0,0.65189
2,1,53,53,2.1,0.51747,2.1531,3,1.6568,0,1.2686
2,1,54,54,2.1,0.48965,2.3504,2,1.4506,0,0.53167
2,1,55,55,2.1,0.53722,2.3137,3,1.3065,0,1.4263
2,1,56,56,2.1,0.43362,2.0181,2,1.0141,1,0.64134
2,1,57,57,2.1,0.46399,1.7397,2,0.94002,0,0.291
2,1,58,58,2.1,1.2188,2.3119,2,1.1009,0,1.2632
2,1,59,59,2.1,0.49444,1.8596,3,0.56102,0,0.84357
2,1,60,60,2.1,0.53048,2.235,2,1.0351,0,0.62403
3,1,1,1,2.1,1.0672,1.5108,2,1.5654,0,0.58385
3,1,2,2,2.1,1.0649,2.6164,3,3.102,0,1.405
3,1,3,3,2.1,0.87348,2.3153,3,1.8198,1,0.84817
3,1,4,4,2.1,1.9283,1.7213,2,1.6926,1,1.3041
3,1,5,5,2.1,1.0215,1.8641,2,2.4053,0,3.0193
3,1,6,6,2.1,1.3389,2.0992,1,2.7888,0,1.2967
3,1,7,7,2.1,0.78035,1.9518,1,2.5442,1,0.68531
3,1,8,8,2.1,0.66475,2.7687,2,2.1268,1,1.4262
3,1,9,9,2.1,0.88997,2.1137,2,2.0667,0,1.5633
3,1,10,10,2.1,1.6412,1.9992,2,3.7907,1,3.2876
3,1,11,11,2.1,1.3968,2.119,2,3.0953,1,1.269
3,1,12,12,2.1,1.7897,3.1457,1,1.6513,1,8.3734
3,1,13,13,2.1,0.93422,1.7928,3,2.1698,0,1.712
3,1,14,14,2.1,0.97716,1.1155,3,1.9595,0,1.2685
3,1,15,15,2.1,1.0385,2.0666,2,2.9246,1,2.7399
3,1,16,16,2.1,1.0013,2.0517,3,6.8192,1,3.2109
3,1,17,17,2.1,0.62185,2.3157,2,2.0558,0,1.8844
3,1,18,18,2.1,0.79799,2.6843,3,3.0816,0,0.85525
3,1,19,19,2.1,1.034,2.3092,2,2.0903,1,0.41034
3,1,20,20,2.1,0.65092,2.2444,3,2.721,1,1.2061
3,1,21,21,2.1,0.68413,2.2319,2,2.428,1,2.0682
3,1,22,22,2.1,1.0466,2.2774,1,1.5955,1,1.2732
3,1,23,23,2.1,0.64669,2.6054,3,2.8491,0,0.95883
3,1,24,24,2.1,0.62927,2.4798,1,1.8117,1,0.69855
3,1,25,25,2.1,0.734,4.0434,1,0.98268,1,0.62134
3,1,26,26,2.1,0.64528,2.3325,3,1.7651,1,0.4143
3,1,27,27,2.1,0.57183,2.5169,2,2.2713,0,1.6913
3,1,28,28,2.1,1.4282,1.3968,3,2.3269,0,1.6862
3,1,29,29,2.1,1.6551,2.9084,1,2.2777,0,0.49394
3,1,30,30,2.1,1.2787,2.3421,1,11.955,1,0.75203
3,1,31,31,2.1,6.7543,2.0429,1,1.6955,0,1.7239
3,1,32,32,2.1,0.37355,2.0481,3,1.7079,0,1.111
3,1,33,33,2.1,0.78454,2.2331,2,1.6069,1,0.49165
3,1,34,34,2.1,0.85049,2.3334,3,1.8767,0,2.1478
3,1,35,35,2.1,0.39273,1.8027,1,2.8157,1,1.004
3,1,36,36,2.1,0.94568,2.3674,2,3.8015,0,2.7355
3,1,37,37,2.1,0.73268,3.2767,2,2.1876,1,0.85901
3,1,38,38,2.1,0.84793,2.0763,3,2.2366,1,0.93633
3,1,39,39,2.1,0.76814,2.1198,3,1.6573,0,2.0886
3,1,40,40,2.1,0.53485,2.2893,3,2.8402,0,2.0972
3,1,41,41,2.1,0.63079,2.4262,3,2.8083,0,0.95095
3,1,42,42,2.1,0.71542,2.7935,1,2.268,1,0.96868
3,1,43,43,2.1,1.1259,4.0402,1,2.4862,1,1.1047
3,1,44,44,2.1,0.9469,2.965,2,1.8619,0,1.1032
3,1,45,45,2.1,1.6106,3.6457,1,1.8417,1,1.3027
3,1,46,46,2.1,0.7216,2.3265,2,2.2802,0,1.0694
3,1,47,47,2.1,1.6064,2.8535,1,2.2621,1,0.3932
3,1,48,48,2.1,0.90991,2.1954,2,1.8118,1,0.6409
3,1,49,49,2.1,0.77935,2.8285,2,2.0449,0,1.4857
3,1,50,50,2.1,0.91039,2.465,3,3.0239,0,1.2415
3,1,51,51,2.1,0.87991,2.8633,1,1.586,1,0.62221
3,1,52,52,2.1,1.7786,4.2323,1,1.8313,1,1.2014
3,1,53,53,2.1,0.95508,2.4381,2,1.6796,1,1.7798
3,1,54,54,2.1,2.3253,2.0316,1,3.1036,0,1.0794
3,1,55,55,2.1,0.67786,2.0519,2,1.6432,0,0.76548
3,1,56,56,2.1,0.97369,2.5627,2,1.8682,1,0.80002
3,1,57,57,2.1,0.85783,2.8802,3,1.9229,0,1.1765
3,1,58,58,2.1,1.9684,3.0952,2,1.5609,1,1.3732
3,1,59,59,2.1,0.74305,4.4345,1,1.9344,1,0.66526
3,1,60,60,2.1,1.4618,5.3107,1,1.9137,1,1.2176
4,1,1,1,2.1,1.0315,1.4868,3,4.5838,0,1.6854
4,1,2,2,2.1,0.58558,1.6825,2,2.8909,0,3.1542
4,1,3,3,2.1,0.58377,2.0741,3,2.9428,0,1.4801
4,1,4,4,2.1,1.323,2.6185,3,5.2652,1,1.715
4,1,5,5,2.1,1.2049,1.7279,1,3.949,1,2.6093
4,1,6,6,2.1,1.8968,1.0587,2,3.511,0,2.6955
4,1,7,7,2.1,1.4012,1.0043,3,1.9083,0,1.9663
4,1,8,8,2.1,0.80802,1.6994,2,2.2498,0,3.0372
4,1,9,9,2.1,1.1145,2.8531,2,3.7348,1,1.5659
4,1,10,10,2.1,1.2885,3.1568,1,3.9855,1,1.2041
4,1,11,11,2.1,1.7045,1.2305,2,3.2855,0,1.6741
4,1,12,12,2.1,0.69729,0.99689,3,1.6755,0,2.3495
4,1,13,13,2.1,0.83115,2.0655,3,2.4955,1,1.5973
4,1,14,14,2.1,1.1046,1.729,2,2.4487,1,2.1851
4,1,15,15,2.1,0.90957,1.1029,2,3.2232,0,1.1959
4,1,16,16,2.1,0.77777,1.8589,1,2.3155,0,1.1844
4,1,17,17,2.1,0.75058,0.90382,3,1.763,0,1.2162
4,1,18,18,2.1,0.75704,2.0362,3,2.8707,1,0.74405
4,1,19,19,2.1,0.60423,3.2371,2,2.1716,1,0.71267
4,1,20,20,2.1,0.5357,1.5823,3,1.8791,0,2.543
4,1,21,21,2.1,0.85311,1.4909,3,1.9105,1,1.4397
4,1,22,22,2.1,0.82046,1.5147,3,1.7434,0,1.9337
4,1,23,23,2.1,0.83496,2.9855,2,4.3647,1,0.31063
4,1,24,24,2.1,0.65458,2.3933,3,1.7531,1,2.0961
4,1,25,25,2.1,1.6733,4.0913,3,7.2924,1,0.53792
4,1,26,26,2.1,0.54512,2.0068,3,2.6506,0,2.102
4,1,27,27,2.1,0.53844,2.0787,2,2.7002,0,2.1143
4,1,28,28,2.1,0.47758,4.47,1,0.9688,1,0.57885
4,1,29,29,2.1,0.60752,1.6764,3,1.3489,0,2.038
4,1,30,30,2.1,0.75008,1.4774,1,3.195,1,0.85281
4,1,31,31,2.1,0.74844,2.9387,2,4.1421,0,1.3867
4,1,32,32,2.1,0.59053,2.3624,3,2.0812,1,1.4329
4,1,33,33,2.1,0.55253,2.6618,1,2.5751,0,0.32103
4,1,34,34,2.1,0.73028,1.6151,1,3.262,1,0.27856
4,1,35,35,2.1,1.0383,1.2679,2,1.8023,0,1.3644
4,1,36,36,2.1,1.0952,2.2978,2,2.6753,1,0.21914
4,1,37,37,2.1,2.073,1.8167,1,1.711,0,2.0476
4,1,38,38,2.1,0.68272,2.3764,2,4.1607,1,2.3547
4,1,39,39,2.1,0.76681,1.073,2,5.3311,0,0.27433
4,1,40,40,2.1,0.61474,2.2301,3,1.9475,0,1.7808
4,1,41,41,2.1,1.4256,2.07,3,1.0383,0,1.7957
4,1,42,42,2.1,0.81284,2.0069,3,2.2576,1,1.7055
4,1,43,43,2.1,0.90301,0.80476,1,2.1572,0,0.90631
4,1,44,44,2.1,0.73903,3.0346,1,2.7432,1,0.28913
4,1,45,45,2.1,0.51703,1.839,2,1.232,0,2.0926
4,1,46,46,2.1,0.30795,1.4519,3,2.2201,0,0.29472
4,1,47,47,2.1,0.58721,1.6174,3,2.3416,1,0.085066
4,1,48,48,2.1,0.23654,3.1025,3,2.2158,1,2.1802
4,1,49,49,2.1,0.48182,1.5544,3,0.9289,1,1.4047
4,1,50,50,2.1,1.1813,1.4573,3,1.3252,0,0.67291
4,1,51,51,2.1,0.47013,1.8519,2,2.6687,0,2.2164
4,1,52,52,2.1,0.47876,1.6925,1,3.7335,0,2.3736
4,1,53,53,2.1,0.77203,3.1916,2,1.5807,1,1.5616
4,1,54,54,2.1,0.88021,0.97204,2,2.068,0,1.4186
4,1,55,55,2.1,0.47787,2.0065,3,4.0674,0,0.19034
4,1,56,56,2.1,0.39378,1.1505,3,2.2654,0,0.48695
4,1,57,57,2.1,0.61388,1.4575,2,1.731,0,1.528
4,1,58,58,2.1,0.44249,1.115,1,3.1072,1,0.40825
4,1,59,59,2.1,0.26367,2.5339,1,3.9582,1,0.75561
4,1,60,60,2.1,0.099652,1.8502,1,1.2262,0,0.83356
5,1,1,1,2.1,7.9358,1.9554,2,1.1417,1,1.1161
5,1,2,2,2.1,1.3573,1.8106,3,0.8681,0,2.9506
5,1,3,3,2.1,1.2966,1.9779,2,0.95603,1,1.6424
5,1,4,4,2.1,1.0512,1.6212,3,1.9665,0,1.433
5,1,5,5,2.1,1.1168,1.8689,3,1.4124,0,1.7508
5,1,6,6,2.1,1.1804,2.0731,3,0.99239,1,0.54762
5,1,7,7,2.1,1.1097,1.9259,2,0.89037,1,0.60251
5,1,8,8,2.1,1.94,2.1284,3,1.1812,0,0.25014
5,1,9,9,2.1,0.95278,1.7983,2,0.69811,0,0.83479
5,1,10,10,2.1,0.84551,1.7063,3,1.928,0,0.28378
5,1,11,11,2.1,1.2933,2.2147,2,1.5102,0,0.50796
5,1,12,12,2.1,1.4054,2.1921,2,1.7127,0,0.44644
5,1,13,13,2.1,1.1038,2.193,3,0.88925,1,0.41862
5,1,14,14,2.1,0.83158,1.4113,2,0.91776,0,0.46198
5,1,15,15,2.1,1.8911,1.5375,2,0.70333,1,0.72767
5,1,16,16,2.1,0.85923,2.1334,2,0.75366,0,0.6492
5,1,17,17,2.1,1.3072,2.2183,2,0.9232,1,0.6421
5,1,18,18,2.1,0.89572,2.0902,3,0.81462,0,1.684
5,1,19,19,2.1,0.89433,1.8552,2,0.9023,1,0.7591
5,1,20,20,2.1,2.2908,2.2159,3,1.6565,0,1.1368
5,1,21,21,2.1,0.77644,2.6949,3,1.0577,1,0.50778
5,1,22,22,2.1,2.011,2.8361,2,0.67383,1,0.41886
5,1,23,23,2.1,0.85488,2.4411,2,1.0074,1,0.25918
5,1,24,24,2.1,0.98716,2.1854,2,1.3059,0,1.4263
5,1,25,25,2.1,0.98527,1.9598,3,1.5136,1,0.28824
5,1,26,26,2.1,1.2744,2.1064,3,1.3681,1,0.51607
5,1,27,27,2.1,0.71614,1.7249,3,1.9135,0,5.4783
5,1,28,28,2.1,0.42498,1.7658,2,1.0331,1,0.28358
5,1,29,29,2.1,1.2727,2.2582,3,0.95967,0,0.23048
5,1,30,30,2.1,0.86379,2.0346,3,0.79376,1,0.1914
5,1,31,31,2.1,1.2376,2.2875,2,0.91644,1,0.59657
5,1,32,32,2.1,0.72129,2.0103,2,1.0117,0,0.45502
5,1,33,33,2.1,1.1582,2.1972,3,0.59723,1,0.93962
5,1,34,34,2.1,0.5999,2.1099,3,0.7455,0,0.55289
5,1,35,35,2.1,0.5573,2.3643,2,1.4789,0,1.1424
5,1,36,36,2.1,0.57592,2.0474,3,0.74326,1,1.3899
5,1,37,37,2.1,1.431,2.2095,2,0.62554,1,0.49431
5,1,38,38,2.1,0.57774,2.1531,2,0.32345,1,0.16423
5,1,39,39,2.1,0.76757,1.9501,2,1.2332,0,0.28351
5,1,40,40,2.1,0.75717,1.7647,3,1.0235,1,2.3149
5,1,41,41,2.1,0.51221,3.0739,1,2.6701,1,1.1462
5,1,42,42,2.1,0.63706,1.2883,2,1.1371,0,0.34338
5,1,43,43,2.1,0.87272,2.4835,2,0.91167,1,1.1607
5,1,44,44,2.1,0.46296,1.5785,3,2.7113,0,0.17039
5,1,45,45,2.1,0.3512,1.8557,2,0.59875,1,2.1233
5,1,46,46,2.1,0.57892,2.0741,2,3.504,0,0.95323
5,1,47,47,2.1,0.50475,2.3456,2,1.0448,1,0.34271
5,1,48,48,2.1,0.12371,1.966,2,0.67205,0,1.163
5,1,49,49,2.1,0.5578,1.6058,2,0.77564,0,0.52567
5,1,50,50,2.1,0.5065,1.8363,2,2.0928,1,0.45017
5,1,51,51,2.1,0.69059,2.1661,2,1.8313,1,0.18449
5,1,52,52,2.1,0.4432,1.7907,2,1.0339,0,0.68347
5,1,53,53,2.1,1.9407,2.0496,2,2.0488,1,0.24794
5,1,54,54,2.1,0.47474,1.9971,3,1.7512,1,1.1631
5,1,55,55,2.1,0.74854,1.8917,2,1.0422,0,0.79566
5,1,56,56,2.1,0.2194,2.0337,3,0.98609,1,0.70315
5,1,57,57,2.1,0.3306,2.3808,2,1.1898,1,3.2247
5,1,58,58,2.1,0.719,2.103,3,1.1722,0,0.60875
5,1,59,59,2.1,0.63611,2.503,2,1.028,1,0.87868
5,1,60,60,2.1,1.2477,2.0103,2,0.98629,0,0.64012
6,1,1,1,2.1,0.28034,2.061,2,1.5072,1,1.7746
6,1,2,2,2.1,0.27729,2.1412,2,1.6615,1,1.5986
6,1,3,3,2.1,1.3676,2.2743,2,3.0563,1,1.6559
6,1,4,4,2.1,0.35129,1.4689,2,1.6119,1,3.1856
6,1,5,5,2.1,0.42716,1.3982,3,2.092,0,2.5632
6,1,6,6,2.1,0.79662,1.8396,2,1.672,0,3.5722
6,1,7,7,2.1,1.4477,2.0741,2,3.0227,0,3.6368
6,1,8,8,2.1,1.8692,2.5119,2,2.3507,0,2.8908
6,1,9,9,2.1,1.584,1.7688,2,2.8151,0,2.9024
6,1,10,10,2.1,1.1257,1.8568,2,1.8179,0,1.7564
6,1,11,11,2.1,1.0445,1.0142,2,1.7901,0,1.9528
6,1,12,12,2.1,0.80594,1.5849,3,2.7033,0,1.5757
6,1,13,13,2.1,0.62627,0.66587,2,3.1874,0,1.0582
6,1,14,14,2.1,0.76549,1.5997,2,4.8047,1,4.2883
6,1,15,15,2.1,0.93679,1.6035,2,1.4558,0,1.2345
6,1,16,16,2.1,0.7292,1.4002,2,1.4981,0,1.2487
6,1,17,17,2.1,1.3507,1.7914,2,2.2699,0,1.9822
6,1,18,18,2.1,1.0332,1.667,2,1.5994,0,1.7885
6,1,19,19,2.1,0.85091,1.7816,2,1.2131,0,2.1024
6,1,20,20,2.1,0.77093,1.1779,2,1.5836,0,0.78827
6,1,21,21,2.1,0.75468,2.0097,2,1.7649,0,1.5399
6,1,22,22,2.1,0.65556,1.6404,2,1.3578,0,1.562
6,1,23,23,2.1,0.6998,1.7352,2,1.0607,1,0.39544
6,1,24,24,2.1,0.56051,2.0732,3,1.0853,0,1.9848
6,1,25,25,2.1,0.7056,1.7646,3,1.7086,1,0.80728
6,1,26,26,2.1,0.62653,1.7459,2,1.1113,1,0.36211
6,1,27,27,2.1,0.60192,1.2778,2,0.76144,1,0.35132
6,1,28,28,2.1,0.79121,1.9019,2,0.86773,1,0.37672
6,1,29,29,2.1,0.81854,0.99611,2,1.8544,0,1.7932
6,1,30,30,2.1,0.74454,1.4992,2,1.2937,1,0.56259
6,1,31,31,2.1,1.1376,1.7506,1,5.413,1,1.4986
6,1,32,32,2.1,0.78375,1.7482,2,0.7857,0,1.7836
6,1,33,33,2.1,0.50838,1.6103,2,0.95647,1,0.34689
6,1,34,34,2.1,0.59996,1.7143,2,0.7288,1,1.4506
6,1,35,35,2.1,0.62268,1.9794,2,0.59775,0,2.0488
6,1,36,36,2.1,0.53765,1.2692,2,0.61178,1,0.70754
6,1,37,37,2.1,0.97561,1.2721,2,0.80652,1,1.9899
6,1,38,38,2.1,0.65536,1.8999,2,0.39353,1,1.2121
6,1,39,39,2.1,1.2395,1.0215,2,0.59187,1,0.71987
6,1,40,40,2.1,0.7673,1.3993,2,0.79914,1,0.58743
6,1,41,41,2.1,1.6745,1.4713,2,0.51226,1,0.97869
6,1,42,42,2.1,1.0651,1.6489,2,1.2372,0,1.7042
6,1,43,43,2.1,0.63418,2.0192,2,0.53115,1,1.0928
6,1,44,44,2.1,0.74459,1.6807,2,1.4489,0,1.5638
6,1,45,45,2.1,0.61863,1.5809,2,1.3937,1,1.9019
6,1,46,46,2.1,0.73961,1.4049,2,0.60391,0,2.3365
6,1,47,47,2.1,0.99594,1.0959,2,1.1116,0,0.7906
6,1,48,48,2.1,1.0305,1.3774,2,1.0759,1,0.3599
6,1,49,49,2.1,1.9388,1.8162,3,3.1274,0,1.7849
6,1,50,50,2.1,1.2167,1.9256,3,1.8992,0,2.361
6,1,51,51,2.1,0.76323,1.6717,3,1.6479,1,0.38178
6,1,52,52,2.1,0.78296,1.4202,3,0.95054,1,0.32893
6,1,53,53,2.1,0.66371,2.2337,3,1.3385,1,0.40116
6,1,54,54,2.1,0.64836,0.92515,2,1.5857,0,1.6587
6,1,55,55,2.1,0.8093,1.6902,2,2.1789,0,2.3062
6,1,56,56,2.1,0.57221,1.7316,2,1.2132,0,1.023
6,1,57,57,2.1,0.76446,1.4923,2,1.573,0,1.1777
6,1,58,58,2.1,0.52753,0.94775,3,1.2508,0,0.97018
6,1,59,59,2.1,0.63045,1.1532,2,1.0967,0,0.75374
6,1,60,60,2.1,0.60565,1.6293,2,1.6628,0,1.5889
7,1,1,1,2.1,1.8925,1.8651,2,4.3297,0,1.1995
7,1,2,2,2.1,1.5339,0.89131,2,2.5978,1,1.0823
7,1,3,3,2.1,0.64243,1.4525,2,2.0964,0,0.95744
7,1,4,4,2.1,0.62624,1.0476,2,2.1158,0,0.97744
7,1,5,5,2.1,0.56037,1.0501,2,1.8027,0,1.0605
7,1,6,6,2.1,1.2279,1.8468,3,1.6292,0,2.2975
7,1,7,7,2.1,0.97929,2.1303,3,1.9754,0,3.3171
7,1,8,8,2.1,0.5845,1.3891,2,1.7402,1,0.53565
7,1,9,9,2.1,0.52715,1.4321,2,1.8689,0,0.82345
7,1,10,10,2.1,0.35847,1.2959,2,1.1339,0,1.3748
7,1,11,11,2.1,2.6631,1.3937,1,1.4293,0,1.7536
7,1,12,12,2.1,3.3778,1.8639,1,1.505,0,1.8515
7,1,13,13,2.1,1.468,1.1843,2,1.3195,0,1.8277
7,1,14,14,2.1,0.71167,1.77,2,1.9731,1,1.5247
7,1,15,15,2.1,0.85465,1.9987,2,3.1151,0,0.8218
7,1,16,16,2.1,1.4076,2.0224,1,2.1888,0,0.7352
7,1,17,17,2.1,0.53513,1.5701,3,1.1861,0,0.91653
7,1,18,18,2.1,0.4915,1.4523,3,1.2854,1,0.65674
7,1,19,19,2.1,0.72612,1.6327,2,1.2382,0,0.5365
7,1,20,20,2.1,0.84785,1.5708,2,3.8643,0,2.18
7,1,21,21,2.1,0.50454,0.75114,2,1.9291,0,0.94551
7,1,22,22,2.1,0.5628,1.7712,2,5.63,0,1.3748
7,1,23,23,2.1,3.3144,1.8215,3,3.4587,0,1.4332
7,1,24,24,2.1,0.56574,2.1189,2,1.5659,1,1.8679
7,1,25,25,2.1,0.44799,1.3979,2,1.4168,0,0.80094
7,1,26,26,2.1,0.76456,2.2579,2,1.5696,1,1.1068
7,1,27,27,2.1,1.2013,1.3872,2,0.99563,0,1.3599
7,1,28,28,2.1,0.50461,1.3694,2,1.343,1,3.3753
7,1,29,29,2.1,0.50271,1.5359,2,1.8939,0,0.69765
7,1,30,30,2.1,0.64012,1.4614,2,2.1394,0,1.2323
7,1,31,31,2.1,2.0458,1.7333,2,1.4295,0,0.3412
7,1,32,32,2.1,0.54074,2.2848,2,1.7211,1,1.4345
7,1,33,33,2.1,0.91031,1.4079,2,0.82011,1,0.81581
7,1,34,34,2.1,0.69697,1.524,2,1.3928,0,0.43867
7,1,35,35,2.1,0.48417,1.4329,3,1.6999,0,0.70933
7,1,36,36,2.1,0.66259,1.5346,2,6.9898,0,1.9088
7,1,37,37,2.1,0.48522,1.7277,2,1.8111,1,0.66497
7,1,38,38,2.1,1.1802,1.5799,2,1.5278,0,1.1808
7,1,39,39,2.1,0.62871,1.5128,2,2.078,0,1.0009
7,1,40,40,2.1,0.61501,1.5779,3,2.2956,0,0.37111
7,1,41,41,2.1,1.882,1.2542,2,1.7386,0,0.53446
7,1,42,42,2.1,0.38278,1.86,1,1.9684,1,0.74355
7,1,43,43,2.1,0.37548,1.4544,2,0.98406,0,0.56646
7,1,44,44,2.1,0.5847,1.7044,2,1.355,0,0.65834
7,1,45,45,2.1,0.93082,1.1428,1,1.7553,0,0.44506
7,1,46,46,2.1,0.63828,1.3366,2,1.5338,0,0.36297
7,1,47,47,2.1,0.49459,1.4328,2,1.2839,0,0.40694
7,1,48,48,2.1,0.60448,1.4488,2,0.99023,1,0.76374
7,1,49,49,2.1,1.0257,1.3281,1,1.4813,0,0.41486
7,1,50,50,2.1,0.63994,1.7656,3,1.3716,0,0.4798
7,1,51,51,2.1,0.50097,1.8732,2,5.295,0,0.81053
7,1,52,52,2.1,0.48028,1.7501,2,2.5777,0,1.0435
7,1,53,53,2.1,0.40931,1.6223,2,1.1547,0,0.38944
7,1,54,54,2.1,0.47111,1.9993,2,3.5326,1,1.451
7,1,55,55,2.1,0.68092,3.1006,1,1.4491,1,0.56222
7,1,56,56,2.1,0.74771,1.8296,2,6.9149,0,0.69823
7,1,57,57,2.1,0.63037,1.8741,2,1.1993,1,0.27208
7,1,58,58,2.1,0.44201,1.6442,2,1.2109,0,0.65405
7,1,59,59,2.1,1.0888,1.5608,1,1.7949,1,0.92341
7,1,60,60,2.1,0.3754,1.8923,2,6.9388,0,0.8295
8,1,1,1,2.1,0.48852,1.3137,2,1.2143,0,1.1585
8,1,2,2,2.1,0.46034,1.3197,2,1.0614,0,0.99297
8,1,3,3,2.1,0.42184,1.7208,2,0.83662,0,1.0302
8,1,4,4,2.1,0.56621,1.6456,2,0.91918,0,0.54498
8,1,5,5,2.1,0.66677,1.6121,2,1.504,0,0.78269
8,1,6,6,2.1,0.51731,1.9286,1,1.9017,1,0.69935
8,1,7,7,2.1,0.41727,1.3895,2,0.86314,1,1.0001
8,1,8,8,2.1,0.23457,1.9519,2,0.70001,1,0.79109
8,1,9,9,2.1,0.58709,1.7401,2,0.78426,0,0.80261
8,1,10,10,2.1,0.43802,1.5731,2,0.91939,0,2.1087
8,1,11,11,2.1,0.32742,1.9949,2,0.91183,1,0.71904
8,1,12,12,2.1,0.28415,1.8847,2,0.84515,1,0.88711
8,1,13,13,2.1,0.44073,1.4183,2,0.9591,0,0.66413
8,1,14,14,2.1,0.59976,1.4889,2,0.79509,0,0.58281
8,1,15,15,2.1,0.26922,1.2779,2,0.76182,0,0.4824
8,1,16,16,2.1,0.24689,1.4982,2,0.62905,0,0.47209
8,1,17,17,2.1,0.44479,1.6478,2,0.70736,1,3.397
8,1,18,18,2.1,0.25511,1.7433,2,1.0109,0,0.54323
8,1,19,19,2.1,0.24898,1.4785,2,1.4699,0,0.48883
8,1,20,20,2.1,0.23217,1.7827,2,0.78638,1,0.76029
8,1,21,21,2.1,0.3284,1.7825,3,0.66414,0,2.4759
8,1,22,22,2.1,0.63633,1.5148,2,0.82008,0,0.56907
8,1,23,23,2.1,0.3421,1.8575,2,0.76317,0,0.53973
8,1,24,24,2.1,0.29459,1.3676,2,1.0369,1,0.64685
8,1,25,25,2.1,0.31924,1.8189,2,1.0146,0,0.88994
8,1,26,26,2.1,0.90176,3.9867,1,1.6396,1,0.68325
8,1,27,27,2.1,0.58877,1.9225,2,1.2766,0,0.4955
8,1,28,28,2.1,0.34118,1.6564,2,1.0758,1,0.50588
8,1,29,29,2.1,0.30665,1.9806,2,0.95323,0,2.2676
8,1,30,30,2.1,0.48716,1.6956,3,1.0422,0,0.49598
8,1,31,31,2.1,0.38288,1.8836,2,1.1582,1,0.88803
8,1,32,32,2.1,0.50422,2.2932,2,1.1668,0,0.6103
8,1,33,33,2.1,0.32158,2.6866,1,2.2849,1,0.68675
8,1,34,34,2.1,0.54684,1.8188,2,0.82345,1,1.1679
8,1,35,35,2.1,0.68407,1.7938,2,1.1802,0,0.62929
8,1,36,36,2.1,0.35236,1.5259,2,0.88832,0,0.69468
8,1,37,37,2.1,0.3467,1.7391,2,0.88406,1,0.92673
8,1,38,38,2.1,0.26206,2.1546,2,0.84795,0,0.55236
8,1,39,39,2.1,0.63717,2.202,2,8.3943,0,0.27759
8,1,40,40,2.1,0.7041,1.7737,2,0.76167,1,0.58317
8,1,41,41,2.1,0.22851,1.7834,3,0.8553,0,0.53737
8,1,42,42,2.1,0.36288,1.6721,2,0.77164,0,0.49163
8,1,43,43,2.1,0.47339,1.6878,2,0.7927,1,0.46185
8,1,44,44,2.1,0.2586,1.4764,2,0.64102,1,0.66403
8,1,45,45,2.1,0.35701,1.7674,2,0.73266,1,0.39657
8,1,46,46,2.1,0.29828,1.6906,2,0.72754,0,1.5449
8,1,47,47,2.1,0.25681,2.0368,2,0.75818,0,0.48412
8,1,48,48,2.1,0.47549,1.3853,2,0.7924,1,0.67459
8,1,49,49,2.1,0.50784,1.5088,2,0.66223,1,0.65204
8,1,50,50,2.1,0.31036,1.8822,1,1.0569,1,0.51585
8,1,51,51,2.1,0.27984,1.8182,2,0.61975,1,0.42342
8,1,52,52,2.1,0.25877,1.6792,2,0.61501,0,0.66702
8,1,53,53,2.1,0.33425,1.7837,2,0.85627,0,1.3711
8,1,54,54,2.1,0.84056,1.8555,2,0.71426,1,0.38406
8,1,55,55,2.1,1.367,2.0944,2,1.9564,1,0.457
8,1,56,56,2.1,0.51517,1.9831,2,0.67409,1,0.56346
8,1,57,57,2.1,0.57267,1.2135,3,0.97806,0,0.50933
8,1,58,58,2.1,0.27857,1.6704,2,0.6567,0,0.87686
8,1,59,59,2.1,0.50733,1.8342,2,1.0249,0,2.0245
8,1,60,60,2.1,0.25909,1.6787,2,0.78366,1,0.38685
9,1,1,1,2.1,1.6614,2.7689,2,1.7661,1,1.5298
9,1,2,2,2.1,0.85549,2.1914,2,4.9795,1,5.6749
9,1,3,3,2.1,1.0606,2.3872,2,3.0636,0,1.3154
9,1,4,4,2.1,0.9804,1.8154,1,2.8919,1,0.98443
9,1,5,5,2.1,0.93967,1.7316,3,9.898,1,1.8982
9,1,6,6,2.1,0.83623,1.9533,2,1.8706,0,1.5335
9,1,7,7,2.1,0.85165,1.963,2,3.2073,1,1.3655
9,1,8,8,2.1,0.80279,2.0202,3,3.57,0,2.0566
9,1,9,9,2.1,0.88213,2.027,2,6.7819,1,1.4528
9,1,10,10,2.1,0.98304,1.8141,2,2.7646,0,1.2946
9,1,11,11,2.1,0.74131,2.3514,2,1.5307,1,0.94351
9,1,12,12,2.1,0.69619,2.481,2,2.7073,0,1.1409
9,1,13,13,2.1,0.76302,2.1649,1,4.5091,1,1.1035
9,1,14,14,2.1,0.70789,1.9132,2,4.0809,0,1.492
9,1,15,15,2.1,0.89057,1.6197,2,2.3105,1,1.8653
9,1,16,16,2.1,0.67243,2.1139,2,2.6292,0,0.96617
9,1,17,17,2.1,0.72586,1.8133,2,1.415,1,0.91082
9,1,18,18,2.1,0.98337,2.2416,2,1.886,1,0.99242
9,1,19,19,2.1,0.71447,2.0762,3,4.0932,0,2.1639
9,1,20,20,2.1,0.78899,2.439,2,2.5247,0,2.402
9,1,21,21,2.1,0.5827,2.4221,2,3.0191,0,1.0006
9,1,22,22,2.1,0.78297,2.7144,2,1.3052,1,0.94155
9,1,23,23,2.1,0.65776,2.172,1,2.6032,1,0.95681
9,1,24,24,2.1,0.65221,2.5043,2,1.5318,1,0.96746
9,1,25,25,2.1,0.67085,2.3035,1,2.3752,1,0.42463
9,1,26,26,2.1,0.56606,1.8362,3,1.9502,1,1.3843
9,1,27,27,2.1,0.73575,1.7719,2,4.6073,1,2.5411
9,1,28,28,2.1,0.40912,1.712,3,3.4281,0,1.0988
9,1,29,29,2.1,0.52636,1.8359,3,3.2446,0,4.451
9,1,30,30,2.1,0.48619,1.7623,3,2.6334,1,1.9507
9,1,31,31,2.1,0.66233,2.3778,2,2.4961,0,0.79889
9,1,32,32,2.1,0.75765,2.4416,2,1.6933,1,0.55097
9,1,33,33,2.1,0.70434,1.5487,2,2.1039,0,1.1059
9,1,34,34,2.1,0.65733,2.2954,2,2.8232,1,0.84734
9,1,35,35,2.1,0.61173,2.0633,3,4.2033,1,0.65403
9,1,36,36,2.1,0.67088,2.0213,2,6.3382,0,3.5865
9,1,37,37,2.1,0.45831,1.7344,2,2.86,1,0.78351
9,1,38,38,2.1,0.57247,2.1817,2,1.4482,1,0.41577
9,1,39,39,2.1,0.5694,2.0657,2,2.3718,1,0.66824
9,1,40,40,2.1,0.72002,2.5386,2,2.3656,1,0.3528
9,1,41,41,2.1,0.68904,2.1254,1,2.1117,1,0.84292
9,1,42,42,2.1,0.64115,2.1162,2,1.2359,1,0.42134
9,1,43,43,2.1,0.53746,2.1344,2,4.7368,0,1.6759
9,1,44,44,2.1,0.49899,2.2534,2,1.3861,1,0.80308
9,1,45,45,2.1,0.6143,3.101,1,2.6186,1,0.6403
9,1,46,46,2.1,0.46504,2.5907,2,2.2214,1,0.81407
9,1,47,47,2.1,0.7123,1.8387,1,1.6484,1,0.77489
9,1,48,48,2.1,0.60363,1.8311,2,2.3035,1,0.8349
9,1,49,49,2.1,0.61482,2.4319,2,4.0351,0,1.3277
9,1,50,50,2.1,0.62972,2.6038,2,1.8817,1,0.9763
9,1,51,51,2.1,0.74553,2.4571,2,1.3549,1,0.96382
9,1,52,52,2.1,0.63779,2.1916,2,1.312,1,0.64386
9,1,53,53,2.1,0.47821,2.6157,2,3.641,1,1.589
9,1,54,54,2.1,0.55318,2.0325,2,1.8432,0,1.4965
9,1,55,55,2.1,0.55232,2.2457,2,1.5404,1,4.7449
9,1,56,56,2.1,0.43155,1.9827,3,1.5069,1,2.145
9,1,57,57,2.1,0.61623,1.9493,2,1.9451,1,1.0249
9,1,58,58,2.1,0.45172,2.1547,2,2.8059,0,1.0261
9,1,59,59,2.1,0.35509,1.9228,2,4.3495,1,1.9766
9,1,60,60,2.1,0.46473,2.1627,3,2.5531,0,2.3644
10,1,1,1,2.1,0.69867,2.5676,3,1.8391,0,1.8211
10,1,2,2,2.1,0.6741,2.4253,2,1.9099,1,2.7748
10,1,3,3,2.1,1.3251,2.5385,3,1.4922,0,2.2261
10,1,4,4,2.1,0.69945,2.2803,2,1.4358,1,2.932
10,1,5,5,2.1,0.81881,2.7461,3,2.4504,0,2.4759
10,1,6,6,2.1,0.83301,2.4939,2,1.2486,1,2.4533
10,1,7,7,2.1,0.73962,3.2258,2,1.5574,1,0.89932
10,1,8,8,2.1,0.56355,2.3694,2,1.2921,0,0.87619
10,1,9,9,2.1,0.54847,2.243,2,1.7111,0,2.1513
10,1,10,10,2.1,0.36886,1.9845,2,1.1672,1,1.3552
10,1,11,11,2.1,0.28584,2.6594,2,3.3479,1,1.8752
10,1,12,12,2.1,1.88,2.5903,3,1.1336,1,1.5803
10,1,13,13,2.1,1.6498,2.0315,2,1.4258,1,0.98857
10,1,14,14,2.1,1.3605,1.9026,3,2.805,0,1.5174
10,1,15,15,2.1,0.86878,2.4203,1,1.7803,1,1.6414
10,1,16,16,2.1,0.87781,4.2416,2,1.1286,0,3.0922
10,1,17,17,2.1,0.60839,2.5515,2,1.3397,1,1.5862
10,1,18,18,2.1,0.54958,2.1426,2,1.3495,1,1.0791
10,1,19,19,2.1,0.84264,2.6899,3,1.0571,0,3.5373
10,1,20,20,2.1,1.8867,2.2319,3,0.94908,1,3.9551
10,1,21,21,2.1,0.27661,2.2304,3,0.97847,0,1.8168
10,1,22,22,2.1,0.68203,3.2802,3,1.1868,1,0.80801
10,1,23,23,2.1,0.31969,2.8977,3,1.7896,0,1.4214
10,1,24,24,2.1,0.83873,2.9359,3,0.86435,1,2.3411
10,1,25,25,2.1,0.79324,2.678,3,1.2863,1,0.58251
10,1,26,26,2.1,0.1971,3.2425,2,1.4576,1,0.66161
10,1,27,27,2.1,0.35623,1.9884,3,1.021,0,1.2847
10,1,28,28,2.1,0.14429,3.1306,3,1.4876,1,1.2089
10,1,29,29,2.1,0.64709,3.1945,2,1.5476,1,0.51348
10,1,30,30,2.1,0.64227,2.6525,2,1.3532,0,1.3079
10,1,31,31,2.1,0.73922,2.4121,2,1.176,1,1.0763
10,1,32,32,2.1,0.77215,2.8862,3,1.44,0,0.61162
10,1,33,33,2.1,0.76031,2.3406,3,1.5843,0,0.39254
10,1,34,34,2.1,0.49212,2.5279,2,1.012,1,1.426
10,1,35,35,2.1,0.61429,3.4907,3,3.8676,1,0.40174
10,1,36,36,2.1,0.5641,2.8297,3,2.3123,0,3.2017
10,1,37,37,2.1,0.54521,2.43,2,1.6886,0,0.85996
10,1,38,38,2.1,0.91617,2.4178,3,1.5651,0,2.4518
10,1,39,39,2.1,0.50859,3.3152,2,1.3263,1,0.42578
10,1,40,40,2.1,0.55335,2.2849,2,1.4408,0,0.31232
10,1,41,41,2.1,0.44904,2.6425,2,1.2852,0,0.4189
10,1,42,42,2.1,0.70089,2.232,2,1.3128,0,0.50102
10,1,43,43,2.1,0.60608,4.075,2,1.4172,1,1.1542
10,1,44,44,2.1,0.47106,3.1238,1,2.7062,0,3.9687
10,1,45,45,2.1,0.6745,2.7132,2,1.5637,0,1.3884
10,1,46,46,2.1,0.35231,3.7715,2,1.9891,1,0.28371
10,1,47,47,2.1,0.52815,2.4316,2,1.2236,0,0.89963
10,1,48,48,2.1,0.93877,2.2365,2,1.0674,0,0.78048
10,1,49,49,2.1,0.53546,2.5344,2,1.9149,1,2.0509
10,1,50,50,2.1,0.69439,2.543,3,1.2851,0,0.94313
10,1,51,51,2.1,0.47425,2.6655,3,1.4489,0,1.6657
10,1,52,52,2.1,0.46012,2.7172,2,1.8638,1,0.25359
10,1,53,53,2.1,0.52047,2.6724,2,2.8443,1,0.37366
10,1,54,54,2.1,0.54906,2.6937,2,1.2846,1,1.256
10,1,55,55,2.1,0.082174,3.145,3,1.4109,1,0.51298
10,1,56,56,2.1,0.27122,3.3124,3,2.9357,0,1.1773
10,1,57,57,2.1,1.3153,2.6446,3,1.3376,1,0.78333
10,1,58,58,2.1,0.061158,2.6325,3,1.7234,0,1.4978
10,1,59,59,2.1,0.20734,2.8526,3,1.4025,1,1.4693
10,1,60,60,2.1,0.22243,2.8893,2,3.2677,1,1.216
11,1,1,1,2.1,1.8406,1.748,2,1.8891,1,2.5081
11,1,2,2,2.1,1.8073,1.9111,2,2.6253,0,0.89712
11,1,3,3,2.1,1.7482,1.556,2,2.0967,0,2.1904
11,1,4,4,2.1,1.0637,2.1187,2,4.0043,1,3.1429
11,1,5,5,2.1,1.6971,1.9048,2,1.4085,0,1.4243
11,1,6,6,2.1,1.8044,1.9697,2,4.7803,0,2.8963
11,1,7,7,2.1,1.3199,2.658,2,1.9466,1,1.6407
11,1,8,8,2.1,1.8191,1.9299,2,1.125,0,6.1248
11,1,9,9,2.1,4.1049,1.2171,2,0.81826,0,2.9326
11,1,10,10,2.1,2.9853,2.4177,2,1.3265,0,1.0891
11,1,11,11,2.1,1.6766,1.9877,2,1.5193,1,5.7312
11,1,12,12,2.1,1.1317,1.9326,2,1.5389,1,2.5965
11,1,13,13,2.1,1.351,2.0062,2,7.2333,0,0.97886
11,1,14,14,2.1,1.3266,2.0261,2,2.8878,0,1.9659
11,1,15,15,2.1,1.0966,1.5428,2,1.7883,0,0.77101
11,1,16,16,2.1,1.1022,2.569,2,1.266,0,1.5036
11,1,17,17,2.1,1.8672,0.88184,2,1.3163,0,0.94244
11,1,18,18,2.1,1.6537,1.8074,2,2.5105,0,0.72407
11,1,19,19,2.1,1.0571,1.8626,3,3.4402,0,1.0679
11,1,20,20,2.1,1.3331,2.4533,2,4.2043,0,0.95526
11,1,21,21,2.1,1.4432,2.3768,3,1.5483,1,1.7901
11,1,22,22,2.1,1.5826,2.4947,2,2.7749,1,1.6699
11,1,23,23,2.1,1.0384,2.5976,2,1.5983,1,3.9518
11,1,24,24,2.1,1.0487,2.8715,2,1.217,1,0.94182
11,1,25,25,2.1,1.0623,1.5676,3,1.2786,0,1.63
11,1,26,26,2.1,0.92579,2.5646,1,2.5539,0,2.0043
11,1,27,27,2.1,1.2555,2.6599,2,2.2353,0,1.1785
11,1,28,28,2.1,2.6241,1.9321,1,1.0762,0,2.4898
11,1,29,29,2.1,0.8306,2.1709,2,1.6059,0,0.73432
11,1,30,30,2.1,1.0092,1.0775,1,2.4864,0,0.75475
11,1,31,31,2.1,1.1062,1.5859,2,2.119,0,1.8654
11,1,32,32,2.1,0.96974,1.9838,2,1.3531,0,0.86994
11,1,33,33,2.1,1.645,1.9146,3,2.9505,0,1.9918
11,1,34,34,2.1,1.7672,2.1072,2,2.1725,0,0.65754
11,1,35,35,2.1,0.82636,2.2276,3,2.0141,0,1.0152
11,1,36,36,2.1,0.97037,3.0466,3,4.8878,0,0.70175
11,1,37,37,2.1,0.90332,1.9715,2,1.6079,1,0.64816
11,1,38,38,2.1,0.7912,2.5629,3,2.351,1,2.2906
11,1,39,39,2.1,1.2806,2.4945,2,1.8373,1,0.78048
11,1,40,40,2.1,1.1199,2.5581,3,1.547,0,3.3915
11,1,41,41,2.1,0.89965,3.0928,2,1.7206,1,1.0452
11,1,42,42,2.1,0.86015,2.1279,2,1.5135,0,2.0262
11,1,43,43,2.1,0.93232,2.7788,2,1.4257,1,2.188
11,1,44,44,2.1,1.0128,2.718,1,2.3767,0,4.7486
11,1,45,45,2.1,0.80157,2.3955,1,19.09,1,1.8943
11,1,46,46,2.1,1.1576,2.2882,2,1.6054,0,1.6089
11,1,47,47,2.1,1.5007,2.3798,3,1.3636,0,1.5271
11,1,48,48,2.1,1.4567,2.4228,3,1.7331,0,1.5398
11,1,49,49,2.1,0.59068,1.964,2,1.3245,1,1.312
11,1,50,50,2.1,1.2305,2.3556,3,1.1563,0,2.2491
11,1,51,51,2.1,0.91728,2.4309,2,1.2489,0,1.0038
11,1,52,52,2.1,1.0656,2.8177,3,0.95045,1,2.181
11,1,53,53,2.1,0.61272,2.607,2,5.0072,0,1.8383
11,1,54,54,2.1,0.86938,2.3343,3,2.89,0,1.7062
11,1,55,55,2.1,0.78959,2.2745,2,1.6842,0,0.92962
11,1,56,56,2.1,1.1681,2.6562,2,4.9199,1,2.7376
11,1,57,57,2.1,0.70225,2.2213,3,2.5306,0,0.86426
11,1,58,58,2.1,1.001,2.3822,2,3.1493,0,1.6519
11,1,59,59,2.1,0.8274,1.7406,3,1.7877,0,0.78251
11,1,60,60,2.1,0.62039,3.248,1,2.3762,1,0.84732
12,1,1,1,2.1,1.3735,2.5616,3,1.1247,0,2.3496
12,1,2,2,2.1,0.65093,2.5572,2,1.3451,1,0.86706
12,1,3,3,2.1,0.51871,2.4084,2,1.0482,1,3.6282
12,1,4,4,2.1,0.56058,1.8931,2,1.0872,0,0.58408
12,1,5,5,2.1,0.49423,2.3184,3,0.46594,0,1.5056
12,1,6,6,2.1,0.45335,1.9853,3,1.604,0,1.8575
12,1,7,7,2.1,0.50601,1.3998,1,3.0673,0,0.85421
12,1,8,8,2.1,0.55176,2.9084,3,1.0699,0,1.071
12,1,9,9,2.1,0.5433,2.7034,2,0.99216,1,0.95155
12,1,10,10,2.1,0.43859,2.5248,2,0.90835,1,0.52698
12,1,11,11,2.1,0.56752,1.6193,2,0.88102,0,0.57915
12,1,12,12,2.1,0.61464,2.4914,2,0.78485,0,0.545
12,1,13,13,2.1,0.5488,1.8183,3,0.71606,0,1.3431
12,1,14,14,2.1,0.50265,2.0468,3,1.0909,0,2.1373
12,1,15,15,2.1,1.194,3.5523,2,0.85016,1,0.54369
12,1,16,16,2.1,1.3226,4.4355,1,1.0388,1,0.72378
12,1,17,17,2.1,0.6171,2.2311,3,1.2743,0,0.90024
12,1,18,18,2.1,0.42197,2.7383,2,3.2544,1,1.2536
12,1,19,19,2.1,0.50547,2.1627,2,0.42589,0,0.46731
12,1,20,20,2.1,0.38201,2.0306,2,0.80033,0,0.46894
12,1,21,21,2.1,0.55571,3.1632,3,0.79909,1,1.0177
12,1,22,22,2.1,0.41035,2.9676,2,2.7755,1,1.1344
12,1,23,23,2.1,0.73572,2.8718,2,1.0914,0,0.58896
12,1,24,24,2.1,0.40036,2.4316,2,0.87382,1,0.83887
12,1,25,25,2.1,0.55373,2.6105,3,1.061,1,0.64117
12,1,26,26,2.1,0.91314,2.0939,3,0.67556,0,0.41484
12,1,27,27,2.1,0.89404,2.728,2,0.98824,0,1.66
12,1,28,28,2.1,0.38253,2.5687,1,2.1904,1,0.43331
12,1,29,29,2.1,0.42438,1.7905,3,0.53548,0,1.2216
12,1,30,30,2.1,0.48948,1.9877,3,1.3941,0,0.72612
12,1,31,31,2.1,0.80883,3.2395,2,0.75487,1,0.5605
12,1,32,32,2.1,0.47245,1.7755,2,0.78679,0,0.45964
12,1,33,33,2.1,0.41511,2.2188,3,0.66522,0,0.61739
12,1,34,34,2.1,0.44635,2.2076,3,1.0969,0,0.55135
12,1,35,35,2.1,0.36411,2.4422,2,0.78497,1,0.33278
12,1,36,36,2.1,0.39895,2.2193,2,0.75389,1,0.33483
12,1,37,37,2.1,0.46879,2.7093,3,1.1716,0,0.78548
12,1,38,38,2.1,0.45074,2.0953,3,0.65873,0,0.12727
12,1,39,39,2.1,0.36581,1.8074,2,0.29667,0,0.3417
12,1,40,40,2.1,0.35918,2.3275,1,1.9372,1,0.19452
12,1,41,41,2.1,0.36199,2.3445,2,1.0004,0,0.45511
12,1,42,42,2.1,0.38332,1.7324,2,0.86562,0,0.15407
12,1,43,43,2.1,0.32153,2.4002,2,0.23871,0,0.1509
12,1,44,44,2.1,0.44728,2.2419,3,0.49836,1,0.18046
12,1,45,45,2.1,0.63105,2.4035,1,0.15487,0,0.16258
12,1,46,46,2.1,0.8173,2.382,2,0.17335,0,0.12821
12,1,47,47,2.1,0.3735,2.8526,2,1.0905,1,0.46152
12,1,48,48,2.1,0.41976,2.1597,3,0.62344,0,1.8891
12,1,49,49,2.1,0.40784,3.7157,2,0.23731,1,0.26234
12,1,50,50,2.1,0.42653,2.1539,2,1.1699,0,1.2327
12,1,51,51,2.1,0.50886,2.115,3,0.46301,1,1.3659
12,1,52,52,2.1,0.37105,1.8246,3,0.57314,0,0.5376
12,1,53,53,2.1,0.40016,2.0572,3,0.42196,1,1.0989
12,1,54,54,2.1,0.33524,2.1712,3,1.9447,1,1.6135
12,1,55,55,2.1,0.42672,2.329,3,1.2259,0,0.86344
12,1,56,56,2.1,0.36608,2.8196,2,2.4901,1,0.94495
12,1,57,57,2.1,0.36864,2.4851,3,0.8653,0,1.1416
12,1,58,58,2.1,0.3569,1.8383,3,1.2327,0,0.3801
12,1,59,59,2.1,0.31284,2.3194,3,0.96765,1,0.88076
12,1,60,60,2.1,0.32972,2.0706,2,0.44288,0,0.4673
13,1,1,1,2.1,1.0571,1.6121,3,2.924,1,1.8192
13,1,2,2,2.1,1.3227,1.5603,3,1.5005,1,1.4059
13,1,3,3,2.1,1.4295,2.2028,2,2.356,0,1.0827
13,1,4,4,2.1,1.8483,1.293,3,1.7005,1,1.1039
13,1,5,5,2.1,0.79323,1.8778,3,1.5522,0,1.7062
13,1,6,6,2.1,0.97316,1.6609,2,3.252,0,1.0629
13,1,7,7,2.1,1.0471,2.1192,2,2.7046,0,1.1925
13,1,8,8,2.1,1.2332,2.1041,2,1.2806,1,1.2027
13,1,9,9,2.1,1.2373,1.933,3,2.8896,0,1.6066
13,1,10,10,2.1,1.1609,1.2522,3,1.1954,1,1.9416
13,1,11,11,2.1,0.52798,2.0054,3,1.7573,0,0.91134
13,1,12,12,2.1,1.1041,1.4594,2,1.7499,1,0.85383
13,1,13,13,2.1,1.1706,2.3838,3,1.027,0,1.0655
13,1,14,14,2.1,1.2782,1.6773,3,1.2137,1,1.0283
13,1,15,15,2.1,0.8625,1.9432,3,1.1384,0,1.2339
13,1,16,16,2.1,0.79787,1.596,2,0.94941,0,1.0422
13,1,17,17,2.1,0.88539,2.0462,3,0.77232,0,0.83652
13,1,18,18,2.1,2.3022,1.3953,1,0.73688,0,2.3347
13,1,19,19,2.1,0.75707,1.3759,2,1.6758,0,0.63802
13,1,20,20,2.1,0.90608,1.9369,3,1.1552,0,1.2478
13,1,21,21,2.1,1.0148,2.308,3,2.0221,0,1.7574
13,1,22,22,2.1,0.81265,0.98141,3,1.403,1,0.54526
13,1,23,23,2.1,1.1413,1.8888,2,1.2946,1,0.3797
13,1,24,24,2.1,1.1249,1.8003,2,1.0531,0,1.7713
13,1,25,25,2.1,0.91136,2.1555,2,3.3442,0,0.79686
13,1,26,26,2.1,0.90199,0.85805,3,1.7257,1,1.2747
13,1,27,27,2.1,1.0256,1.74,2,1.9963,0,1.3397
13,1,28,28,2.1,1.8649,1.2544,2,3.1476,0,1.1999
13,1,29,29,2.1,0.97532,1.6893,3,0.77237,0,1.4113
13,1,30,30,2.1,0.99698,1.5946,3,2.5258,1,0.74853
13,1,31,31,2.1,0.83459,1.3947,2,2.4856,0,1.3404
13,1,32,32,2.1,0.98972,2.137,3,1.8932,0,0.93736
13,1,33,33,2.1,0.54865,1.3681,2,1.9175,1,0.754
13,1,34,34,2.1,1.7186,1.7433,3,2.5624,1,5.2504
13,1,35,35,2.1,1.2732,1.8859,3,1.7299,0,1.0042
13,1,36,36,2.1,0.55636,2.0007,3,1.7785,0,1.7499
13,1,37,37,2.1,0.7507,1.2941,3,1.2656,0,1.8282
13,1,38,38,2.1,0.81843,1.1838,2,1.4543,1,1.6955
13,1,39,39,2.1,1.3068,1.9622,3,2.1649,0,1.1666
13,1,40,40,2.1,0.7875,1.7737,2,2.9468,0,1.4508
13,1,41,41,2.1,0.86716,2.5067,3,2.5455,0,2.612
13,1,42,42,2.1,0.87276,2.0492,2,1.4394,1,0.76024
13,1,43,43,2.1,0.86121,2.1683,3,1.1526,0,1.195
13,1,44,44,2.1,0.83253,1.7551,3,1.6452,1,0.42859
13,1,45,45,2.1,0.89428,0.97862,3,1.4393,1,1.1228
13,1,46,46,2.1,0.76995,1.8723,2,1.4334,1,1.2406
13,1,47,47,2.1,0.75936,1.9395,3,1.671,0,1.0586
13,1,48,48,2.1,0.72156,1.624,3,1.2723,1,0.39895
13,1,49,49,2.1,0.72461,1.8019,3,1.067,1,0.34309
13,1,50,50,2.1,0.81836,1.7071,2,0.63564,1,0.45844
13,1,51,51,2.1,0.83554,0.82037,3,0.9727,1,0.87416
13,1,52,52,2.1,0.92856,1.6171,3,1.2791,0,0.818
13,1,53,53,2.1,0.78926,1.837,2,0.78051,1,1.1289
13,1,54,54,2.1,0.83832,1.0722,3,1.1986,0,2.1162
13,1,55,55,2.1,0.41021,1.7291,2,2.2111,1,2.213
13,1,56,56,2.1,0.86494,1.733,3,1.3537,0,0.62063
13,1,57,57,2.1,0.6488,1.1306,1,1.7029,0,1.6681
13,1,58,58,2.1,0.75098,1.7194,2,1.3932,0,1.7645
13,1,59,59,2.1,0.56104,1.4041,2,3.684,0,1.3009
13,1,60,60,2.1,0.59945,1.7809,3,1.1246,0,2.9892
14,1,1,1,2.1,2.8198,2.4776,3,2.2877,1,2.206
14,1,2,2,2.1,1.0371,1.6956,2,1.2621,0,1.5909
14,1,3,3,2.1,1.0321,2.458,2,1.3718,1,1.5967
14,1,4,4,2.1,0.82143,1.2853,3,1.2688,0,1.2196
14,1,5,5,2.1,0.60407,2.398,2,2.5037,1,1.1043
14,1,6,6,2.1,0.6469,2.7566,3,1.4445,1,1.54
14,1,7,7,2.1,0.61492,1.4676,1,1.9173,0,1.453
14,1,8,8,2.1,0.56149,1.9562,2,1.1581,0,1.7641
14,1,9,9,2.1,0.65709,0.075905,1,4.8131,0,1.7583
14,1,10,10,2.1,0.81963,1.4969,1,2.3006,0,0.77594
14,1,11,11,2.1,0.71673,2.2686,2,1.6538,1,1.1817
14,1,12,12,2.1,0.68655,2.5472,1,1.4759,1,0.65145
14,1,13,13,2.1,0.59931,1.8932,3,0.9382,1,1.4722
14,1,14,14,2.1,0.5977,2.1167,1,2.0522,1,0.42967
14,1,15,15,2.1,0.57963,2.1566,3,1.983,0,0.86466
14,1,16,16,2.1,0.6653,2.2181,3,1.0411,1,0.50054
14,1,17,17,2.1,0.1527,2.2855,1,1.279,0,1.854
14,1,18,18,2.1,0.75762,2.4759,3,1.2721,1,0.93553
14,1,19,19,2.1,0.82494,2.7019,1,1.4391,1,0.83425
14,1,20,20,2.1,0.7536,1.8103,3,0.82493,0,0.98942
14,1,21,21,2.1,0.82013,1.8851,3,0.66575,1,0.8439
14,1,22,22,2.1,0.70685,2.5379,1,1.2805,1,0.80115
14,1,23,23,2.1,0.17358,1.6529,2,0.85566,0,1.5488
14,1,24,24,2.1,0.97308,2.0374,3,0.90527,0,1.8359
14,1,25,25,2.1,0.68437,2.0196,3,0.59238,1,0.9776
14,1,26,26,2.1,0.76399,2.7573,2,0.93372,1,1.0429
14,1,27,27,2.1,0.70293,2.6963,1,1.8877,1,0.48213
14,1,28,28,2.1,0.79475,2.2667,3,0.60204,1,1.2838
14,1,29,29,2.1,0.73454,1.8196,2,0.69232,0,0.90298
14,1,30,30,2.1,0.64729,2.258,2,0.88406,0,0.45697
14,1,31,31,2.1,0.90427,1.9724,3,1.1706,0,0.9964
14,1,32,32,2.1,0.64296,1.8525,3,0.5306,0,0.54205
14,1,33,33,2.1,0.74717,2.2836,1,6.8391,0,0.79784
14,1,34,34,2.1,0.74577,1.906,3,0.59613,0,0.46442
14,1,35,35,2.1,0.64405,2.1047,3,0.75619,1,0.57422
14,1,36,36,2.1,0.64468,2.9054,2,0.69214,1,0.80148
14,1,37,37,2.1,0.63857,2.2981,1,1.0876,0,0.94616
14,1,38,38,2.1,0.66106,2.0426,2,0.8362,0,1.0087
14,1,39,39,2.1,0.66835,1.958,3,0.58442,1,0.59545
14,1,40,40,2.1,0.73008,1.9326,3,0.48983,1,0.48777
14,1,41,41,2.1,0.66173,2.8935,2,0.70907,1,0.43914
14,1,42,42,2.1,0.75628,1.9237,3,0.78472,0,1.67
14,1,43,43,2.1,0.60782,1.8391,3,0.62084,0,0.39756
14,1,44,44,2.1,0.63175,2.0543,1,0.5823,0,0.44317
14,1,45,45,2.1,0.82047,2.1841,2,1.5536,0,0.74408
14,1,46,46,2.1,0.68783,2.1852,1,1.9294,0,0.61457
14,1,47,47,2.1,0.68856,2.4248,3,0.74679,0,1.6533
14,1,48,48,2.1,0.74307,2.7408,3,0.80784,1,0.46425
14,1,49,49,2.1,0.75464,2.3473,2,0.65367,1,0.55978
14,1,50,50,2.1,0.72015,2.097,3,0.9497,1,0.81676
14,1,51,51,2.1,0.63896,2.2743,1,1.1345,1,0.70549
14,1,52,52,2.1,0.72053,1.1985,1,1.3772,0,1.0144
14,1,53,53,2.1,0.89942,1.6415,3,0.92428,0,0.80139
14,1,54,54,2.1,0.69432,1.9545,3,0.64512,1,0.57634
14,1,55,55,2.1,0.65473,2.2731,2,0.60874,0,1.1149
14,1,56,56,2.1,0.71971,1.7093,3,0.62474,0,0.46395
14,1,57,57,2.1,0.52222,2.2501,2,1.0897,1,1.0228
14,1,58,58,2.1,0.64917,1.8559,3,1.0087,1,0.63884
14,1,59,59,2.1,0.69585,1.8939,3,0.8753,1,0.41482
14,1,60,60,2.1,0.71457,1.095,1,1.6379,0,0.45852
15,1,1,1,2.1,1.3981,1.545,3,3.9741,1,3.591
15,1,2,2,2.1,1.253,1.6206,2,3.5699,1,2.426
15,1,3,3,2.1,2.2575,1.4088,3,1.9006,0,2.7659
15,1,4,4,2.1,1.0146,1.7317,2,2.4262,1,1.6982
15,1,5,5,2.1,0.38202,1.7054,3,3.4464,0,3.3357
15,1,6,6,2.1,0.81196,1.9314,2,6.6636,1,1.0513
15,1,7,7,2.1,0.18101,1.3053,3,3.1472,0,4.7756
15,1,8,8,2.1,1.3543,2.0581,3,1.9737,1,0.84682
15,1,9,9,2.1,0.77216,1.8867,3,1.9691,1,0.65395
15,1,10,10,2.1,0.87001,1.4594,2,1.763,0,1.5037
15,1,11,11,2.1,4.6251,1.7443,1,2.7013,0,2.5646
15,1,12,12,2.1,1.3619,1.4406,2,2.6376,0,3.6542
15,1,13,13,2.1,0.93076,1.595,3,6.098,0,1.1303
15,1,14,14,2.1,1.1114,1.7036,2,3.7449,1,1.8094
15,1,15,15,2.1,1.1935,1.5393,2,2.9101,0,3.1605
15,1,16,16,2.1,0.81343,1.5563,3,3.0608,0,1.472
15,1,17,17,2.1,0.95332,1.6711,3,2.8331,1,1.5043
15,1,18,18,2.1,1.4502,1.579,2,2.5243,0,0.52109
15,1,19,19,2.1,0.85087,1.6319,2,1.8398,0,4.0963
15,1,20,20,2.1,1.4096,1.6887,3,2.5326,1,3.2171
15,1,21,21,2.1,0.90867,1.6891,3,2.7971,1,1.0265
15,1,22,22,2.1,0.87128,2.0728,1,2.4077,1,0.6097
15,1,23,23,2.1,0.89734,1.4077,2,2.2118,0,1.4878
15,1,24,24,2.1,0.17564,1.4422,2,4.4254,0,0.9542
15,1,25,25,2.1,1.1538,1.508,3,6.7615,0,3.155
15,1,26,26,2.1,0.93013,1.3817,2,2.2282,0,0.9747
15,1,27,27,2.1,0.93281,1.9803,3,2.6232,0,1.2953
15,1,28,28,2.1,1.7633,1.3786,2,1.5381,1,0.52095
15,1,29,29,2.1,0.75112,1.7576,2,1.9096,1,0.9006
15,1,30,30,2.1,1.6755,1.7874,2,6.3203,0,1.8844
15,1,31,31,2.1,0.90549,1.6234,2,2.0724,0,1.0207
15,1,32,32,2.1,0.84304,1.7017,3,1.6431,0,0.45033
15,1,33,33,2.1,0.81229,1.7053,3,2.821,0,1.4294
15,1,34,34,2.1,1.6084,1.7622,2,2.036,0,0.54244
15,1,35,35,2.1,1.1842,1.3068,3,1.6725,0,0.84731
15,1,36,36,2.1,0.94578,1.8678,2,2.1281,0,0.66425
15,1,37,37,2.1,0.87407,1.7634,3,1.4373,1,2.3081
15,1,38,38,2.1,0.99238,1.7023,2,1.7427,0,1.1994
15,1,39,39,2.1,0.7298,1.7198,3,2.9437,1,2.3976
15,1,40,40,2.1,0.25424,1.8737,3,2.0599,1,1.8122
15,1,41,41,2.1,0.6981,1.9294,1,1.9733,1,0.83368
15,1,42,42,2.1,0.76517,1.5788,2,1.5501,1,0.51563
15,1,43,43,2.1,0.86005,1.5152,2,7.3158,0,1.9648
15,1,44,44,2.1,0.8277,1.8175,3,2.8648,0,1.8026
15,1,45,45,2.1,0.7914,1.5397,3,1.6099,0,1.0387
15,1,46,46,2.1,0.83544,1.5708,2,3.3569,0,1.5178
15,1,47,47,2.1,1.8907,1.6609,2,4.2508,0,4.902
15,1,48,48,2.1,0.99367,1.5285,2,1.9871,0,0.71822
15,1,49,49,2.1,0.95763,1.4881,2,2.0707,1,0.9067
15,1,50,50,2.1,2.0022,1.8292,3,2.616,0,2.5165
15,1,51,51,2.1,1.1146,1.7201,3,1.894,1,1.0763
15,1,52,52,2.1,0.90362,1.9585,2,7.4614,0,2.9007
15,1,53,53,2.1,0.65288,1.7721,2,2.9715,0,1.3283
15,1,54,54,2.1,0.69517,1.6062,3,2.1227,1,0.45676
15,1,55,55,2.1,0.69912,1.6303,2,2.1254,0,0.7103
15,1,56,56,2.1,0.62759,1.7681,3,2.1664,0,2.202
15,1,57,57,2.1,0.90942,1.1273,1,2.8743,0,1.2561
15,1,58,58,2.1,0.79686,2.032,3,2.1517,0,1.1284
15,1,59,59,2.1,0.81582,1.7677,3,4.728,0,2.9558
15,1,60,60,2.1,1.1957,1.4299,3,1.6878,0,0.69618
16,1,1,1,4.2,1.9254,2.9954,2,2.1693,0,4.3238
16,1,2,2,4.2,1.2793,3.6647,3,3.987,1,4.0867
16,1,3,3,4.2,1.9022,1.5494,2,0.96213,0,2.0723
16,1,4,4,4.2,1.3634,2.2644,1,2.9668,1,1.3745
16,1,5,5,4.2,1.0176,4.1485,1,2.4027,1,3.2586
16,1,6,6,4.2,0.96469,3.9082,2,2.092,0,1.6413
16,1,7,7,4.2,0.89341,3.094,2,1.7612,1,3.4607
16,1,8,8,4.2,0.62479,2.853,2,1.4102,1,2.7972
16,1,9,9,4.2,1.0486,3.6598,3,2.4141,1,2.6291
16,1,10,10,4.2,0.89939,2.6034,2,1.4595,0,0.84439
16,1,11,11,4.2,0.41929,4.5382,1,3.3902,1,1.2604
16,1,12,12,4.2,1.123,4.5786,2,1.3587,1,1.0111
16,1,13,13,4.2,0.52586,3.8951,1,1.8248,1,0.89605
16,1,14,14,4.2,0.8305,2.5143,2,1.2543,0,2.2228
16,1,15,15,4.2,0.72801,2.6571,2,1.2049,0,0.69684
16,1,16,16,4.2,0.41268,3.4032,2,1.1361,1,0.82254
16,1,17,17,4.2,0.67072,2.4661,2,1.0393,1,0.66532
16,1,18,18,4.2,0.97351,4.3142,3,2.2325,1,0.53656
16,1,19,19,4.2,0.4397,2.6053,2,0.86768,0,1.6061
16,1,20,20,4.2,0.92407,3.5718,2,1.2816,1,0.78568
16,1,21,21,4.2,0.56434,3.0772,3,1.3987,0,2.4902
16,1,22,22,4.2,0.58717,3.1063,2,1.2113,1,0.76602
16,1,23,23,4.2,0.56025,3.0325,3,1.3171,0,0.87609
16,1,24,24,4.2,1.7085,2.6255,2,0.92057,1,1.145
16,1,25,25,4.2,0.7625,2.2265,2,0.73847,0,0.88102
16,1,26,26,4.2,0.41807,3.2964,2,1.3456,0,1.1427
16,1,27,27,4.2,0.35631,5.0202,1,1.3005,1,1.5393
16,1,28,28,4.2,0.58778,1.6736,2,1.1127,0,3.4647
16,1,29,29,4.2,0.61394,3.6824,3,1.1401,0,1.634
16,1,30,30,4.2,0.87161,2.7943,1,1.898,1,1.1352
16,1,31,31,4.2,0.88128,2.8018,2,1.3859,1,0.48462
16,1,32,32,4.2,0.5209,2.4978,2,1.3029,0,1.2386
16,1,33,33,4.2,0.60734,4.5332,2,1.1865,1,1.1821
16,1,34,34,4.2,0.62321,4.9481,3,2.0541,0,0.7983
16,1,35,35,4.2,1.3367,3.831,3,1.4096,1,1.884
16,1,36,36,4.2,0.57731,4.9447,2,1.3792,0,1.0392
16,1,37,37,4.2,3.0628,3.3721,3,1.202,0,2.0304
16,1,38,38,4.2,0.92695,5.152,2,1.1613,1,1.4471
16,1,39,39,4.2,2.4938,3.1865,2,1.2106,0,1.1256
16,1,40,40,4.2,0.40085,3.1436,2,0.991,1,1.9797
16,1,41,41,4.2,0.92645,3.9341,3,1.1968,0,1.0887
16,1,42,42,4.2,0.52482,4.1265,2,1.1332,0,0.89151
16,1,43,43,4.2,0.4424,4.848,3,1.3182,1,1.6699
16,1,44,44,4.2,0.67908,3.4342,2,0.9897,0,1.5618
16,1,45,45,4.2,0.41454,3.0765,2,0.85502,1,0.54597
16,1,46,46,4.2,0.32927,5.1554,2,1.5252,1,0.49194
16,1,47,47,4.2,0.5528,3.2892,2,1.1312,1,0.9056
16,1,48,48,4.2,0.48045,3.9882,1,2.0878,0,1.1977
16,1,49,49,4.2,0.51725,4.223,3,2.2397,0,1.5514
16,1,50,50,4.2,0.37572,4.0233,2,1.1071,1,1.4506
16,1,51,51,4.2,0.57973,1.1855,2,2.6049,0,1.5178
16,1,52,52,4.2,0.42658,6.6717,1,2.0819,1,1.1912
16,1,53,53,4.2,2.2297,2.5587,2,1.4153,0,0.72118
16,1,54,54,4.2,0.60514,2.7303,3,1.7644,1,1.9365
16,1,55,55,4.2,0.64687,4.7314,1,1.9199,1,0.84444
16,1,56,56,4.2,1.4877,3.9106,3,1.6867,0,1.4379
16,1,57,57,4.2,0.80032,4.6039,2,1.3104,1,1.0133
16,1,58,58,4.2,0.36764,3.9924,2,1.0758,1,1.8445
16,1,59,59,4.2,0.47838,4.3056,2,1.4328,0,1.139
16,1,60,60,4.2,0.554,5.7127,1,1.8032,1,0.96585
17,1,1,1,4.2,0.68781,4.2612,2,2.231,1,1.6898
17,1,2,2,4.2,0.56269,5.1141,2,1.8382,1,2.3119
17,1,3,3,4.2,1.5742,3.9689,3,1.4142,0,1.6754
17,1,4,4,4.2,0.78968,3.9584,2,1.6559,0,1.4236
17,1,5,5,4.2,4.1219,3.8292,3,1.4022,0,1.4436
17,1,6,6,4.2,1.0187,3.6617,2,1.3791,1,1.2399
17,1,7,7,4.2,0.11025,3.2892,3,1.3304,0,1.7192
17,1,8,8,4.2,0.88119,3.7976,2,1.4825,1,1.4074
17,1,9,9,4.2,2.4269,3.6535,3,1.4507,0,1.5209
17,1,10,10,4.2,0.80655,3.6652,3,1.4053,1,1.1102
17,1,11,11,4.2,0.72503,3.7022,3,1.2676,1,0.97081
17,1,12,12,4.2,0.66425,3.7821,2,1.2584,0,1.0684
17,1,13,13,4.2,3.7862,3.8275,2,1.2662,0,0.64262
17,1,14,14,4.2,0.59537,4.2472,2,1.3787,1,1.0934
17,1,15,15,4.2,0.62334,4.4327,2,0.72921,1,1.3147
17,1,16,16,4.2,0.89219,3.59,2,0.75604,1,0.79583
17,1,17,17,4.2,1.3716,4.2925,3,0.80159,0,1.4225
17,1,18,18,4.2,0.65864,4.7591,3,0.8232,0,0.76328
17,1,19,19,4.2,0.53721,4.5312,2,1.5359,1,0.74711
17,1,20,20,4.2,0.96808,3.8851,2,1.4411,1,0.61676
17,1,21,21,4.2,1.2639,3.8421,3,0.69998,0,0.88175
17,1,22,22,4.2,1.1987,3.865,3,0.71842,0,0.78126
17,1,23,23,4.2,0.85888,3.8595,3,0.80232,0,1.2655
17,1,24,24,4.2,0.70789,2.1823,1,3.0925,0,0.32013
17,1,25,25,4.2,0.91034,3.578,3,0.69388,1,0.74496
17,1,26,26,4.2,0.51885,4.2036,3,0.69434,1,0.77897
17,1,27,27,4.2,0.79601,3.5943,3,2.0749,0,1.2913
17,1,28,28,4.2,0.63403,3.7062,3,0.71973,0,0.72771
17,1,29,29,4.2,0.74328,4.1637,3,0.73972,1,0.83021
17,1,30,30,4.2,0.75952,3.9165,2,0.75321,1,0.78304
17,1,31,31,4.2,0.60964,4.7946,2,1.4665,0,0.94615
17,1,32,32,4.2,0.64644,4.0329,3,0.80899,1,0.75362
17,1,33,33,4.2,1.6646,5.0668,3,0.64951,1,0.76803
17,1,34,34,4.2,1.2145,1.615,1,1.72,0,0.75796
17,1,35,35,4.2,1.0283,2.2301,1,0.72196,1,0.71776
17,1,36,36,4.2,1.1356,5.9108,3,1.2036,1,2.7057
17,1,37,37,4.2,0.79681,4.0102,3,0.70149,0,0.77107
17,1,38,38,4.2,1.0924,3.9613,2,0.7025,0,1.3223
17,1,39,39,4.2,1.3504,3.3318,2,1.7547,0,1.2206
17,1,40,40,4.2,4.7426,2.9546,2,1.542,0,0.91091
17,1,41,41,4.2,1.2256,5.0064,3,0.60387,1,0.58289
17,1,42,42,4.2,0.81651,5.0551,3,1.1543,1,1.1647
17,1,43,43,4.2,0.59272,3.0607,2,0.87426,0,0.82186
17,1,44,44,4.2,0.67172,3.9464,3,0.88512,1,0.70221
17,1,45,45,4.2,1.0506,3.9749,3,0.66613,1,0.64472
17,1,46,46,4.2,0.76916,3.2115,2,1.0428,0,0.68743
17,1,47,47,4.2,0.627,3.3199,3,0.78743,1,0.55895
17,1,48,48,4.2,0.73362,3.784,2,0.79833,0,0.64301
17,1,49,49,4.2,5.3901,0.81148,2,0.83071,0,1.2391
17,1,50,50,4.2,0.37823,4.5156,3,1.0997,1,0.9584
17,1,51,51,4.2,0.82454,5.5567,3,1.5767,1,0.42714
17,1,52,52,4.2,0.68459,4.3703,1,0.74405,0,0.73489
17,1,53,53,4.2,0.46086,3.7057,2,1.0915,0,0.6184
17,1,54,54,4.2,0.62042,3.0233,2,0.64464,0,0.58385
17,1,55,55,4.2,1.1954,4.3237,3,0.83267,1,0.54198
17,1,56,56,4.2,0.6874,3.7542,3,1.0443,0,0.58746
17,1,57,57,4.2,0.63146,3.7604,3,0.81546,1,0.64281
17,1,58,58,4.2,0.65619,4.1158,3,0.85359,0,0.43437
17,1,59,59,4.2,0.87197,3.9459,2,1.1306,1,1.1701
17,1,60,60,4.2,0.84251,3.9942,3,2.0858,1,0.71185
18,1,1,1,4.2,0.85699,3.6897,2,1.6664,0,2.183
18,1,2,2,4.2,0.74701,4.5183,3,6.8621,1,2.1621
18,1,3,3,4.2,0.56672,3.8522,2,1.7968,0,3.6923
18,1,4,4,4.2,0.42642,4.6364,2,2.6395,0,3.1098
18,1,5,5,4.2,0.62747,3.2427,3,1.4237,1,2.3603
18,1,6,6,4.2,0.69654,3.6735,3,3.2636,1,4.6108
18,1,7,7,4.2,0.63412,3.2552,2,1.8019,1,1.3411
18,1,8,8,4.2,0.45504,4.4313,2,1.3013,1,1.1733
18,1,9,9,4.2,0.39031,3.4886,1,1.9799,0,1.7458
18,1,10,10,4.2,1.4654,3.1777,2,1.3473,0,2.1812
18,1,11,11,4.2,0.8484,3.2071,2,2.0283,1,3.6463
18,1,12,12,4.2,0.32865,5.4518,1,2.1109,0,2.2612
18,1,13,13,4.2,0.42948,3.8202,2,1.4715,0,2.5267
18,1,14,14,4.2,0.40727,3.4209,3,0.72009,0,3.0219
18,1,15,15,4.2,0.33082,3.9061,2,1.6207,1,0.92743
18,1,16,16,4.2,0.76647,3.2878,1,2.0707,0,2.9738
18,1,17,17,4.2,0.56086,3.6386,2,1.3952,1,1.1271
18,1,18,18,4.2,0.33773,4.059,2,1.5668,0,1.4521
18,1,19,19,4.2,1.1604,3.6131,3,4.3058,0,3.3852
18,1,20,20,4.2,0.44756,4.0972,2,1.2573,1,0.82956
18,1,21,21,4.2,0.36731,5.2362,2,1.4954,1,1.6777
18,1,22,22,4.2,0.37528,3.1192,2,1.3155,0,3.6233
18,1,23,23,4.2,0.50683,4.2075,2,2.8699,1,1.3283
18,1,24,24,4.2,0.52844,3.3686,1,0.81876,0,3.7637
18,1,25,25,4.2,0.3476,3.2311,2,1.5299,0,3.2097
18,1,26,26,4.2,0.35141,4.4714,3,0.87544,1,1.4843
18,1,27,27,4.2,1.3344,4.2894,2,1.2815,0,2.026
18,1,28,28,4.2,0.75062,3.5713,2,1.7771,0,4.275
18,1,29,29,4.2,0.61274,4.1239,1,0.83284,1,1.0723
18,1,30,30,4.2,0.71903,3.8547,2,1.2589,1,1.6415
18,1,31,31,4.2,0.3434,3.9646,2,6.5562,0,6.6129
18,1,32,32,4.2,0.72438,3.8593,2,2.5902,0,3.2005
18,1,33,33,4.2,1.0668,4.1875,2,1.3815,1,5.4234
18,1,34,34,4.2,0.50369,3.586,3,0.94261,0,2.1265
18,1,35,35,4.2,0.62385,4.2635,2,1.4693,0,2.3103
18,1,36,36,4.2,0.62668,5.3569,1,1.078,0,1.2958
18,1,37,37,4.2,2.1412,5.0359,2,0.87633,0,1.4189
18,1,38,38,4.2,0.39828,3.7265,2,1.2764,1,1.0338
18,1,39,39,4.2,0.7123,4.2245,2,1.8228,0,1.6716
18,1,40,40,4.2,0.51923,3.9224,2,4.3976,0,1.3909
18,1,41,41,4.2,0.92442,4.6352,2,1.3826,1,0.90003
18,1,42,42,4.2,0.67408,4.3873,3,4.7098,0,1.4528
18,1,43,43,4.2,0.45337,3.8433,3,1.8493,1,1.5296
18,1,44,44,4.2,0.476,4.7266,2,4.964,0,1.3774
18,1,45,45,4.2,0.36444,4.1874,2,1.5161,1,0.6871
18,1,46,46,4.2,0.59592,2.7737,1,2.5922,0,1.0644
18,1,47,47,4.2,0.58651,1.7951,1,1.8686,0,1.3184
18,1,48,48,4.2,0.45276,3.7425,2,2.2529,0,0.9807
18,1,49,49,4.2,0.37641,4.5597,1,2.8253,1,1.3107
18,1,50,50,4.2,0.68127,4.0187,2,1.2826,0,3.5455
18,1,51,51,4.2,0.57942,4.8329,2,1.4816,0,3.0036
18,1,52,52,4.2,0.3187,4.7096,2,1.3735,1,1.0774
18,1,53,53,4.2,0.41224,3.504,3,1.4396,1,2.1112
18,1,54,54,4.2,0.59764,3.6244,2,1.3866,1,1.4214
18,1,55,55,4.2,0.39873,3.2094,3,1.9525,0,2.0502
18,1,56,56,4.2,0.3404,3.7702,3,1.2018,0,1.3531
18,1,57,57,4.2,0.41581,3.9516,2,1.8795,0,1.161
18,1,58,58,4.2,0.68471,5.4612,2,2.0146,0,2.9064
18,1,59,59,4.2,1.5292,5.0081,2,2.4422,1,1.1091
18,1,60,60,4.2,0.44569,2.9645,3,1.0906,1,1.237
19,1,1,1,4.2,1.8612,2.8021,2,1.8439,1,2.7226
19,1,2,2,4.2,1.0553,3.6541,3,1.8436,0,1.3943
19,1,3,3,4.2,1.1439,2.0496,3,2.587,0,0.65444
19,1,4,4,4.2,1.2525,4.0222,2,3.1269,1,1.2775
19,1,5,5,4.2,1.3391,4.4743,1,2.5985,1,1.2848
19,1,6,6,4.2,1.0584,3.0593,2,1.8735,1,1.4247
19,1,7,7,4.2,0.7323,3.5243,3,1.5439,1,0.69806
19,1,8,8,4.2,0.78135,2.9886,3,1.1372,0,0.88435
19,1,9,9,4.2,0.69991,2.8048,2,1.6905,0,1.4032
19,1,10,10,4.2,1.1252,3.2847,3,1.5052,1,0.53542
19,1,11,11,4.2,0.93811,4.4292,3,1.2652,1,0.87831
19,1,12,12,4.2,4.8985,2.7392,2,1.4327,0,1.2949
19,1,13,13,4.2,2.6344,1.9724,3,1.7157,0,1.7326
19,1,14,14,4.2,0.76622,3.7264,3,4.9203,1,1.7781
19,1,15,15,4.2,3.6081,4.7857,1,1.5627,1,1.6561
19,1,16,16,4.2,0.68743,2.6182,2,1.6417,0,2.5744
19,1,17,17,4.2,0.5324,3.1761,3,1.6711,0,1.4341
19,1,18,18,4.2,0.87899,3.2435,2,1.5481,0,1.6309
19,1,19,19,4.2,2.0279,3.2849,1,1.8437,0,1.1132
19,1,20,20,4.2,0.67403,3.4207,2,2.3057,0,1.1855
19,1,21,21,4.2,0.85743,3.835,2,1.7961,1,1.3407
19,1,22,22,4.2,0.80975,3.0952,3,1.5057,1,0.9746
19,1,23,23,4.2,6.3166,3.2776,1,1.4359,0,1.039
19,1,24,24,4.2,0.65692,3.4423,1,1.4339,0,0.36227
19,1,25,25,4.2,0.68295,3.5926,2,2.0617,0,0.75462
19,1,26,26,4.2,1.166,2.0501,3,1.1696,0,1.1756
19,1,27,27,4.2,0.83104,3.8208,1,1.9775,1,0.86596
19,1,28,28,4.2,0.86989,3.6285,2,1.6272,1,0.62844
19,1,29,29,4.2,0.93975,3.3394,1,2.8475,1,0.69747
19,1,30,30,4.2,4.3231,4.4822,3,2.0566,1,0.97345
19,1,31,31,4.2,0.53565,4.3936,3,1.6571,1,0.5934
19,1,32,32,4.2,1.0807,2.4809,3,2.3976,0,0.64256
19,1,33,33,4.2,2.5489,3.8952,1,1.8971,1,0.46297
19,1,34,34,4.2,0.77816,2.963,3,2.417,1,4.3537
19,1,35,35,4.2,0.71454,2.0156,3,1.6741,1,1.2118
19,1,36,36,4.2,0.5412,4.5125,3,2.784,1,0.80821
19,1,37,37,4.2,2.9234,4.1553,2,1.5394,1,1.0765
19,1,38,38,4.2,3.0343,2.534,3,1.7877,1,1.2419
19,1,39,39,4.2,0.85143,3.503,2,3.621,0,2.5203
19,1,40,40,4.2,0.50311,3.2141,2,2.204,1,2.242
19,1,41,41,4.2,0.5429,2.9933,2,1.505,1,0.50087
19,1,42,42,4.2,0.6673,3.7405,3,3.129,1,1.5165
19,1,43,43,4.2,0.82684,3.3538,3,1.3855,1,0.9146
19,1,44,44,4.2,0.57317,3.3741,2,1.6455,1,2.0052
19,1,45,45,4.2,0.9514,4.1785,1,1.3319,1,1.047
19,1,46,46,4.2,0.55479,3.5084,3,3.6832,0,1.2144
19,1,47,47,4.2,0.63473,3.2906,3,1.6122,1,0.59853
19,1,48,48,4.2,0.61951,3.9673,2,2.1259,1,1.0547
19,1,49,49,4.2,3.4011,2.217,3,1.4745,0,1.5171
19,1,50,50,4.2,0.61919,3.5277,3,2.0874,1,2.9855
19,1,51,51,4.2,2.6571,1.7932,2,2.4181,0,0.73046
19,1,52,52,4.2,0.54811,3.1752,3,1.0967,1,0.85348
19,1,53,53,4.2,0.75068,2.9289,3,1.5175,1,1.1384
19,1,54,54,4.2,0.78918,3.2147,3,1.6205,1,1.8953
19,1,55,55,4.2,0.4552,3.3617,3,1.3233,1,0.33571
19,1,56,56,4.2,0.86698,2.208,3,1.0314,1,0.7321
19,1,57,57,4.2,0.54642,4.6297,2,1.8956,1,0.51763
19,1,58,58,4.2,2.0323,3.4583,3,2.6594,1,0.3671
19,1,59,59,4.2,2.2637,3.0046,2,1.7122,1,0.29256
19,1,60,60,4.2,0.46445,2.9158,2,2.8701,1,0.50664
20,1,1,1,4.2,0.93667,4.6301,2,2.5256,0,1.9987
20,1,2,2,4.2,1.9117,4.996,2,1.7359,0,1.5339
20,1,3,3,4.2,1.0948,3.996,2,2.099,1,1.0679
20,1,4,4,4.2,0.8727,3.4178,2,2.6627,0,1.3272
20,1,5,5,4.2,0.49189,4.0518,2,1.7112,0,1.4736
20,1,6,6,4.2,0.57489,3.3207,1,2.1487,1,1.2405
20,1,7,7,4.2,0.7232,3.6893,1,2.2733,0,1.58
20,1,8,8,4.2,0.89401,4.692,2,1.7123,0,1.5662
20,1,9,9,4.2,0.94313,6.1448,2,2.4398,1,1.0626
20,1,10,10,4.2,1.2176,5.2461,2,2.0955,1,1.2944
20,1,11,11,4.2,0.9695,5.9466,2,2.1384,1,2.4794
20,1,12,12,4.2,1.1438,4.3445,2,3.9084,1,1.3187
20,1,13,13,4.2,1.928,3.6119,2,1.761,0,1.6545
20,1,14,14,4.2,1.7772,3.9156,2,1.494,0,1.0128
20,1,15,15,4.2,1.3626,4.7937,2,2.377,1,4.656
20,1,16,16,4.2,1.5543,5.879,1,2.2502,1,1.2706
20,1,17,17,4.2,1.2205,3.8204,2,1.6632,1,0.93646
20,1,18,18,4.2,0.81999,4.6191,1,2.9814,1,1.3839
20,1,19,19,4.2,1.2427,4.2086,2,2.5778,0,4.7567
20,1,20,20,4.2,1.2645,3.6502,2,1.9135,0,1.4432
20,1,21,21,4.2,0.9051,4.4741,3,1.4737,0,1.753
20,1,22,22,4.2,1.0923,4.3203,2,2.427,1,0.85237
20,1,23,23,4.2,1.3631,6.7315,2,1.9136,0,1.1268
20,1,24,24,4.2,0.80992,2.4882,2,1.5344,0,0.7113
20,1,25,25,4.2,0.89133,3.7354,2,2.1347,0,0.8546
20,1,26,26,4.2,0.7376,3.394,2,1.8525,0,0.66639
20,1,27,27,4.2,2.0265,3.3278,1,2.2571,1,1.6483
20,1,28,28,4.2,1.1319,3.844,2,1.7031,0,0.9489
20,1,29,29,4.2,1.0733,3.9917,2,1.3629,1,1.8264
20,1,30,30,4.2,1.3309,3.8753,2,0.66688,0,3.1652
20,1,31,31,4.2,7.3306,7.1361,2,1.7488,1,1.2586
20,1,32,32,4.2,0.7816,3.5689,2,2.0448,1,2.0138
20,1,33,33,4.2,2.6321,4.8837,2,1.5051,1,1.2112
20,1,34,34,4.2,1.3154,3.1789,2,1.5497,0,1.4523
20,1,35,35,4.2,0.77411,4.5788,2,1.5227,0,0.68281
20,1,36,36,4.2,0.6912,4.8718,1,1.7793,0,1.0375
20,1,37,37,4.2,1.1914,3.3182,1,1.8874,0,1.163
20,1,38,38,4.2,1.4207,4.5628,2,2.4237,0,0.75878
20,1,39,39,4.2,1.1101,3.7029,2,1.9108,1,1.1685
20,1,40,40,4.2,0.47602,4.4792,2,1.5807,0,1.1915
20,1,41,41,4.2,0.55652,4.2077,2,1.5304,0,1.0007
20,1,42,42,4.2,1.3825,4.5852,2,1.5061,1,0.68259
20,1,43,43,4.2,0.91059,2.3751,2,1.6285,1,1.7676
20,1,44,44,4.2,0.78807,6.7244,2,1.8106,0,1.6646
20,1,45,45,4.2,1.3137,5.2584,2,2.7673,1,2.18
20,1,46,46,4.2,0.70716,4.3768,2,1.6225,0,1.6716
20,1,47,47,4.2,0.99236,3.4433,2,1.389,0,0.84043
20,1,48,48,4.2,1.1528,4.4038,2,1.6282,0,1.1021
20,1,49,49,4.2,1.0248,4.185,1,2.1159,1,0.84175
20,1,50,50,4.2,0.97879,4.0202,2,1.9559,0,1.4344
20,1,51,51,4.2,0.93843,3.7548,2,1.5174,0,1.983
20,1,52,52,4.2,1.0244,4.1051,2,1.5064,0,0.72754
20,1,53,53,4.2,1.1472,4.7082,1,2.5977,1,0.7997
20,1,54,54,4.2,1.3937,4.6237,1,2.3277,1,0.86538
20,1,55,55,4.2,0.97119,3.855,2,1.608,1,0.81861
20,1,56,56,4.2,0.93236,3.883,2,2.2611,1,0.69544
20,1,57,57,4.2,1.2595,4.5678,1,2.801,1,2.0678
20,1,58,58,4.2,1.197,3.3683,2,1.6844,1,0.71077
20,1,59,59,4.2,1.0832,3.8613,1,1.5456,0,1.1733
20,1,60,60,4.2,0.7078,4.973,2,1.7303,0,1.5781
21,1,1,1,4.2,0.88131,5.0187,2,2.2372,1,1.1833
21,1,2,2,4.2,0.6671,3.7949,3,1.391,0,1.483
21,1,3,3,4.2,0.65995,3.084,3,1.6852,0,1.3633
21,1,4,4,4.2,0.68327,4.4578,2,3.2526,1,1.4724
21,1,5,5,4.2,2.723,2.8053,1,1.7138,0,2.0054
21,1,6,6,4.2,0.72252,3.9578,2,1.7571,1,0.94087
21,1,7,7,4.2,0.64925,3.9417,3,1.1278,1,1.6443
21,1,8,8,4.2,0.65373,4.2152,3,1.2458,1,1.5451
21,1,9,9,4.2,0.87597,3.1404,2,1.7355,0,0.73496
21,1,10,10,4.2,0.49608,4.3038,1,1.0311,1,1.0586
21,1,11,11,4.2,0.80363,4.6315,1,1.9751,1,2.2254
21,1,12,12,4.2,0.53436,3.3132,3,0.7297,0,1.9006
21,1,13,13,4.2,1.0237,4.2734,2,1.6202,1,1.3101
21,1,14,14,4.2,0.54222,3.8387,2,2.5991,0,1.2505
21,1,15,15,4.2,0.49176,4.0186,3,1.9413,1,1.7076
21,1,16,16,4.2,1.0089,4.0723,3,2.0706,0,2.456
21,1,17,17,4.2,0.64318,5.2779,1,1.5323,1,0.6974
21,1,18,18,4.2,1.8362,3.4343,2,1.6946,0,1.147
21,1,19,19,4.2,0.75731,3.5223,2,2.0357,0,1.657
21,1,20,20,4.2,1.156,4.2386,3,1.3143,0,2.3849
21,1,21,21,4.2,0.70082,3.6394,2,3.6337,0,0.92351
21,1,22,22,4.2,0.39774,3.2198,3,0.92116,0,1.3469
21,1,23,23,4.2,0.65406,5.1392,3,1.4027,1,0.98286
21,1,24,24,4.2,1.0006,4.5822,2,1.8077,1,0.96378
21,1,25,25,4.2,0.64522,3.6616,2,2.0425,0,1.4485
21,1,26,26,4.2,0.93316,4.0648,2,0.99836,1,0.84404
21,1,27,27,4.2,0.73762,3.3489,3,1.3174,0,1.5315
21,1,28,28,4.2,0.58795,4.7792,2,1.1172,0,0.76897
21,1,29,29,4.2,0.85747,3.8459,3,1.0654,0,1.1591
21,1,30,30,4.2,0.78994,3.1485,1,2.452,0,0.6651
21,1,31,31,4.2,0.94832,3.1793,3,1.0332,0,1.2069
21,1,32,32,4.2,0.46944,4.7427,3,1.1489,1,2.2964
21,1,33,33,4.2,0.79383,3.4237,3,1.1605,1,1.7801
21,1,34,34,4.2,0.45247,4.2257,3,1.9605,0,2.0802
21,1,35,35,4.2,0.75851,4.5679,2,0.9558,1,1.8308
21,1,36,36,4.2,0.84721,3.3357,2,1.9665,0,0.72045
21,1,37,37,4.2,0.63888,4.274,3,1.98,0,1.0374
21,1,38,38,4.2,1.271,4.3829,1,1.8094,1,0.58343
21,1,39,39,4.2,0.71162,3.9183,2,1.3062,1,1.0095
21,1,40,40,4.2,1.2707,3.5832,3,2.5543,1,2.6125
21,1,41,41,4.2,0.4839,5.4062,1,1.0414,1,1.0349
21,1,42,42,4.2,1.2243,3.9591,2,2.0165,0,3.0029
21,1,43,43,4.2,0.76089,3.8517,2,1.9409,0,2.5739
21,1,44,44,4.2,0.47047,4.7783,2,2.9055,0,2.624
21,1,45,45,4.2,0.71896,3.5619,3,1.0971,0,1.553
21,1,46,46,4.2,0.7717,4.2042,2,1.0669,1,0.71047
21,1,47,47,4.2,0.81868,2.5596,2,0.96329,0,0.56247
21,1,48,48,4.2,0.40386,3.6987,2,0.96689,1,0.67758
21,1,49,49,4.2,0.49376,3.6034,3,1.597,0,1.004
21,1,50,50,4.2,0.66056,4.0529,2,2.0108,1,1.0902
21,1,51,51,4.2,1.0205,4.8547,2,2.4207,1,1.2286
21,1,52,52,4.2,1.3891,3.8325,1,0.98919,1,2.3821
21,1,53,53,4.2,0.37517,3.9278,3,0.95037,0,1.308
21,1,54,54,4.2,0.37878,4.1909,3,1.4737,0,1.2019
21,1,55,55,4.2,1.6114,4.5352,2,1.5298,1,1.285
21,1,56,56,4.2,0.67991,2.5597,2,2.9335,0,1.1837
21,1,57,57,4.2,0.36331,3.7647,2,1.1565,1,0.9201
21,1,58,58,4.2,0.45011,4.2239,1,1.4972,1,1.6511
21,1,59,59,4.2,0.40902,3.5795,3,1.0321,0,0.87901
21,1,60,60,4.2,0.32477,3.5903,2,1.1949,1,0.64334
22,1,1,1,4.2,0.30635,3.7024,3,1.8242,0,1.6987
22,1,2,2,4.2,1.6258,3.2868,2,2.4026,1,1.0412
22,1,3,3,4.2,1.6773,3.2887,3,1.2537,1,0.22007
22,1,4,4,4.2,1.1178,4.0814,2,2.711,0,1.3118
22,1,5,5,4.2,2.2336,3.7802,3,0.92429,1,0.86259
22,1,6,6,4.2,1.7964,3.3151,2,0.63776,0,1.012
22,1,7,7,4.2,0.82419,3.8009,3,1.0144,1,0.59132
22,1,8,8,4.2,1.6337,5.9581,1,1.6227,1,2.4728
22,1,9,9,4.2,1.4802,4.0664,2,1.0877,0,0.88535
22,1,10,10,4.2,1.9677,3.969,3,0.51675,1,1.6813
22,1,11,11,4.2,0.41556,3.6306,2,1.0866,0,0.70898
22,1,12,12,4.2,0.47772,3.4183,3,1.3372,1,0.15764
22,1,13,13,4.2,1.4225,2.7096,1,0.6094,1,1.7293
22,1,14,14,4.2,2.6251,4.2088,2,2.3424,0,1.2227
22,1,15,15,4.2,4.1181,4.426,3,1.6798,1,2.5543
22,1,16,16,4.2,0.73753,3.223,3,1.5426,0,0.47544
22,1,17,17,4.2,1.0634,4.2679,2,0.35185,1,0.30824
22,1,18,18,4.2,1.7435,3.851,2,0.27665,0,0.27701
22,1,19,19,4.2,1.1047,4.4342,2,1.4002,0,1.4918
22,1,20,20,4.2,1.7444,3.1393,1,0.63053,1,0.82765
22,1,21,21,4.2,0.84143,3.7894,2,1.4776,1,0.60115
22,1,22,22,4.2,1.0744,5.0501,1,2.0229,1,1.4702
22,1,23,23,4.2,1.0149,4.0697,3,0.74899,0,0.70573
22,1,24,24,4.2,2.222,2.5324,2,0.23715,0,0.22373
22,1,25,25,4.2,0.60603,3.4122,3,1.0482,1,0.16534
22,1,26,26,4.2,1.014,4.5444,2,0.76831,1,0.98235
22,1,27,27,4.2,3.4921,3.4451,3,0.42248,1,0.27523
22,1,28,28,4.2,1.4342,4.8295,3,0.2948,1,0.31543
22,1,29,29,4.2,1.6596,3.4632,2,1.3985,0,0.07723
22,1,30,30,4.2,1.055,3.7477,2,1.3375,0,0.98237
22,1,31,31,4.2,1.0114,3.5541,2,1.0397,1,0.42415
22,1,32,32,4.2,1.3019,3.7433,2,1.6955,0,0.85124
22,1,33,33,4.2,0.96593,3.4418,2,1.1691,1,0.38159
22,1,34,34,4.2,1.3782,3.7662,2,1.1753,0,0.9136
22,1,35,35,4.2,1.0554,4.5225,3,0.13903,0,0.68732
22,1,36,36,4.2,0.99718,3.2567,3,0.068206,1,0.09582
22,1,37,37,4.2,0.97848,3.8918,2,0.66833,1,0.65823
22,1,38,38,4.2,1.3059,3.7842,2,1.1115,0,0.30399
22,1,39,39,4.2,1.1128,4.2308,2,0.98489,0,0.49511
22,1,40,40,4.2,6.0241,3.6772,2,5.2212,0,2.1763
22,1,41,41,4.2,0.25901,1.8417,1,1.4363,0,0.75653
22,1,42,42,4.2,0.8468,3.4313,2,0.77591,1,0.46377
22,1,43,43,4.2,0.88222,4.2172,2,0.88809,0,0.92249
22,1,44,44,4.2,1.2914,4.0121,2,0.096445,0,0.30415
22,1,45,45,4.2,0.65116,3.9947,2,1.5193,1,0.23225
22,1,46,46,4.2,0.68041,4.7325,3,0.82285,0,1.6368
22,1,47,47,4.2,1.8711,4.0945,3,0.48261,1,0.76918
22,1,48,48,4.2,1.0464,4.3934,3,0.71752,1,1.8453
22,1,49,49,4.2,0.90464,4.2855,3,0.37566,1,0.35464
22,1,50,50,4.2,0.92797,3.917,3,0.17638,1,0.78875
22,1,51,51,4.2,0.35914,3.5665,3,1.611,0,0.66357
22,1,52,52,4.2,0.7568,4.0632,2,0.2468,1,0.16633
22,1,53,53,4.2,1.4476,4.5055,3,0.13776,0,0.31226
22,1,54,54,4.2,1.1402,3.4238,3,0.23099,1,0.27957
22,1,55,55,4.2,0.7295,3.444,2,0.95912,0,0.6516
22,1,56,56,4.2,0.7632,4.594,3,0.20512,1,0.18812
22,1,57,57,4.2,0.79398,4.805,2,0.1479,0,0.20666
22,1,58,58,4.2,1.1567,3.3858,3,1.2762,1,0.58923
22,1,59,59,4.2,1.8488,4.0558,3,0.077323,1,0.41474
22,1,60,60,4.2,0.83785,4.3109,3,0.1304,1,1.155
23,1,1,1,4.2,1.7727,3.4712,2,2.8773,0,1.1103
23,1,2,2,4.2,1.2339,3.7426,2,2.7076,0,1.6456
23,1,3,3,4.2,0.88536,3.2951,2,1.5218,1,1.3965
23,1,4,4,4.2,4.8445,5.5177,1,3.4725,1,0.74052
23,1,5,5,4.2,4.8146,5.2838,2,1.0353,0,2.557
23,1,6,6,4.2,1.7052,3.5968,2,5.861,0,3.3766
23,1,7,7,4.2,3.3039,4.4936,2,4.6059,1,1.9125
23,1,8,8,4.2,1.3744,3.2497,3,3.1255,0,1.5463
23,1,9,9,4.2,1.8918,3.961,2,7.8584,1,0.63385
23,1,10,10,4.2,1.7425,3.1868,3,3.0532,0,1.3148
23,1,11,11,4.2,0.72207,3.1114,2,2.2099,0,0.41258
23,1,12,12,4.2,1.2591,2.14,2,5.0831,0,0.90938
23,1,13,13,4.2,2.1067,5.8964,2,1.5916,1,4.8618
23,1,14,14,4.2,1.1912,4.437,2,4.5742,0,1.9029
23,1,15,15,4.2,0.87486,6.5136,1,2.2029,1,2.5292
23,1,16,16,4.2,1.0192,4.5585,2,1.3654,1,1.4904
23,1,17,17,4.2,0.84277,4.2021,2,1.6644,0,2.8276
23,1,18,18,4.2,1.5808,3.6929,2,3.6062,0,3.6044
23,1,19,19,4.2,0.82877,4.018,1,3.5762,1,0.86996
23,1,20,20,4.2,0.58697,4.4866,1,1.7004,1,0.94235
23,1,21,21,4.2,0.67263,4.1002,2,3.3,1,1.1513
23,1,22,22,4.2,0.57271,3.2496,2,1.3142,1,0.50252
23,1,23,23,4.2,1.6836,3.6333,1,2.6131,0,1.0022
23,1,24,24,4.2,0.39434,4.0924,2,2.3559,1,1.7815
23,1,25,25,4.2,1.1187,3.4072,2,1.1422,1,1.5521
23,1,26,26,4.2,0.92158,4.2867,3,1.9282,1,1.5761
23,1,27,27,4.2,0.47027,3.6605,2,2.0447,1,0.63873
23,1,28,28,4.2,0.69431,4.5172,1,2.4487,0,0.85401
23,1,29,29,4.2,0.57717,4.3297,2,3.6964,1,1.3221
23,1,30,30,4.2,0.69682,3.7814,1,2.1745,1,1.7724
23,1,31,31,4.2,2.1083,3.0606,3,2.1341,0,2.2156
23,1,32,32,4.2,1.0033,3.1089,2,1.3457,1,0.75432
23,1,33,33,4.2,0.33459,3.808,1,1.218,1,1.23
23,1,34,34,4.2,0.70172,4.4704,2,2.477,0,1.7361
23,1,35,35,4.2,0.61647,5.4068,2,3.0488,1,0.83928
23,1,36,36,4.2,0.81842,4.658,2,2.1656,1,0.66691
23,1,37,37,4.2,1.4984,3.3322,1,1.6514,1,0.91692
23,1,38,38,4.2,0.59049,4.1396,3,1.2897,1,2.8227
23,1,39,39,4.2,0.83966,4.4997,2,2.3481,1,0.75382
23,1,40,40,4.2,0.9335,2.918,2,2.2014,1,0.70349
23,1,41,41,4.2,0.56766,3.8956,1,4.5467,0,1.3693
23,1,42,42,4.2,0.68218,4.5547,1,1.8001,1,0.41481
23,1,43,43,4.2,0.6743,5.3142,2,3.0443,1,1.597
23,1,44,44,4.2,0.53231,4.5561,2,3.4013,0,1.2666
23,1,45,45,4.2,0.41242,3.8564,1,3.5534,1,1.0015
23,1,46,46,4.2,0.66014,3.3023,2,3.2889,1,1.6425
23,1,47,47,4.2,1.0864,3.8576,2,4.0309,1,3.2343
23,1,48,48,4.2,0.60716,3.8253,3,3.4559,0,0.87933
23,1,49,49,4.2,0.74258,3.6164,3,1.9502,0,1.1166
23,1,50,50,4.2,0.72112,4.297,3,2.1597,1,0.43641
23,1,51,51,4.2,0.74155,4.2897,1,0.86405,0,0.62741
23,1,52,52,4.2,0.61514,3.3806,2,2.8751,1,0.30772
23,1,53,53,4.2,0.97222,4.023,1,0.76617,1,0.87961
23,1,54,54,4.2,0.52224,4.4747,3,2.8913,1,1.6194
23,1,55,55,4.2,0.56428,3.7663,2,2.6758,0,1.8348
23,1,56,56,4.2,0.37875,4.0696,2,1.8482,1,1.4896
23,1,57,57,4.2,0.47475,5.978,1,0.86475,1,0.62784
23,1,58,58,4.2,0.45233,5.8209,2,2.4124,1,2.2128
23,1,59,59,4.2,0.54632,4.5706,2,2.9488,0,0.93795
23,1,60,60,4.2,0.47372,4.7884,1,1.375,0,1.5493
24,1,1,1,4.2,3.9579,4.4426,2,1.9534,1,4.681
24,1,2,2,4.2,5.4887,4.5385,2,2.5633,0,1.2884
24,1,3,3,4.2,1.3654,3.895,3,1.5581,0,2.9122
24,1,4,4,4.2,1.0804,4.0436,2,1.7322,1,1.0387
24,1,5,5,4.2,0.75975,5.6143,2,1.5956,0,1.5271
24,1,6,6,4.2,3.1825,3.5267,3,1.7952,0,1.4392
24,1,7,7,4.2,1.2997,4.8914,2,1.1516,1,1.1823
24,1,8,8,4.2,1.2511,3.9428,2,1.2814,1,0.80199
24,1,9,9,4.2,1.1804,5.7447,3,1.2272,1,0.96446
24,1,10,10,4.2,1.0346,3.8445,2,1.4704,0,1.0831
24,1,11,11,4.2,1.7359,4.531,3,1.122,0,1.5607
24,1,12,12,4.2,0.83682,8.1345,1,1.2018,1,0.85617
24,1,13,13,4.2,1.7145,6.8305,2,1.2881,0,1.1467
24,1,14,14,4.2,2.7547,5.7062,2,1.5138,1,1.6756
24,1,15,15,4.2,1.8258,5.8369,3,1.2858,0,2.8697
24,1,16,16,4.2,6.4607,7.828,2,1.3758,1,1.1636
24,1,17,17,4.2,1.3197,4.795,3,1.1811,0,0.78959
24,1,18,18,4.2,1.7809,4.805,2,4.5997,0,1.8103
24,1,19,19,4.2,1.8331,6.1695,3,1.8849,1,1.2294
24,1,20,20,4.2,1.3246,4.1867,3,1.3614,0,1.6526
24,1,21,21,4.2,1.4049,4.9726,2,1.2863,1,0.59441
24,1,22,22,4.2,0.98145,4.5698,2,1.2261,0,0.53951
24,1,23,23,4.2,4.5741,5.2568,2,1.8494,1,1.4022
24,1,24,24,4.2,0.88266,5.5176,2,1.4966,1,0.64237
24,1,25,25,4.2,1.2991,2.983,3,1.9784,0,1.6136
24,1,26,26,4.2,1.0225,3.348,3,1.2753,1,1.7891
24,1,27,27,4.2,0.948,4.4707,2,1.3905,0,1.412
24,1,28,28,4.2,1.2112,4.9655,3,1.4472,1,1.8012
24,1,29,29,4.2,0.85282,4.4582,3,0.95365,0,1.0836
24,1,30,30,4.2,0.83874,3.9482,2,1.2618,0,0.67848
24,1,31,31,4.2,0.35728,5.0896,3,0.93783,1,0.43499
24,1,32,32,4.2,0.9446,6.1775,3,1.1522,1,0.56909
24,1,33,33,4.2,0.77825,3.8677,3,0.92666,0,1.0532
24,1,34,34,4.2,2.7908,6.7949,2,1.5497,1,1.0279
24,1,35,35,4.2,1.4119,4.3267,3,1.1073,1,0.79975
24,1,36,36,4.2,0.90783,6.5256,1,1.9892,1,0.87181
24,1,37,37,4.2,1.821,4.2186,2,1.0389,1,1.2247
24,1,38,38,4.2,0.73604,5.0718,3,1.5628,0,0.35211
24,1,39,39,4.2,1.0484,4.1081,3,1.2172,0,0.56695
24,1,40,40,4.2,0.93734,6.0467,2,1.5164,1,0.26615
24,1,41,41,4.2,5.314,6.8184,2,2.1313,0,0.82985
24,1,42,42,4.2,0.77024,6.9607,2,1.5141,1,0.68925
24,1,43,43,4.2,2.1845,4.9814,3,1.2716,0,0.47141
24,1,44,44,4.2,0.62136,4.724,3,0.86383,0,1.5657
24,1,45,45,4.2,2.0579,5.1099,2,2.0403,0,1.8469
24,1,46,46,4.2,0.87787,3.7167,3,1.2006,0,0.25557
24,1,47,47,4.2,0.56546,4.5179,2,2.626,0,0.75907
24,1,48,48,4.2,0.9105,4.1652,2,1.0985,0,1.6539
24,1,49,49,4.2,1.1142,5.8697,1,1.2982,1,0.41547
24,1,50,50,4.2,0.72045,3.4607,2,1.2204,0,0.65843
24,1,51,51,4.2,0.80614,3.4865,3,0.95122,0,1.256
24,1,52,52,4.2,0.58054,3.683,3,1.0631,1,0.56523
24,1,53,53,4.2,0.63684,3.9726,3,1.1529,0,0.33253
24,1,54,54,4.2,1.0854,4.1077,1,1.3918,0,0.62495
24,1,55,55,4.2,0.52036,4.4487,2,1.3727,1,0.57256
24,1,56,56,4.2,1.8656,4.6693,1,0.83748,0,0.72392
24,1,57,57,4.2,1.5985,5.0822,3,0.99583,1,0.61331
24,1,58,58,4.2,0.84567,5.8433,2,1.2388,1,0.59726
24,1,59,59,4.2,0.83028,2.67,2,1.5412,0,0.71124
24,1,60,60,4.2,2.112,4.7509,3,1.0994,0,0.71732
25,1,1,1,4.2,3.494,4.5089,3,1.9656,1,1.0644
25,1,2,2,4.2,3.2282,4.0597,2,6.4441,0,2.6162
25,1,3,3,4.2,1.97,3.168,3,1.4627,0,1.1043
25,1,4,4,4.2,4.5728,4.0296,3,1.2711,1,0.72205
25,1,5,5,4.2,0.80738,5.0503,3,2.2484,1,0.65449
25,1,6,6,4.2,1.5989,4.1314,3,1.5241,0,4.698
25,1,7,7,4.2,1.3196,4.2445,3,1.3317,0,0.66547
25,1,8,8,4.2,3.7319,3.0746,2,1.5815,0,1.6023
25,1,9,9,4.2,3.2871,4.3942,3,1.0189,1,0.58267
25,1,10,10,4.2,1.7255,4.0508,3,2.4009,1,0.3148
25,1,11,11,4.2,1.1756,3.8253,3,1.0313,0,1.803
25,1,12,12,4.2,1.6513,5.0921,3,1.2274,1,0.56451
25,1,13,13,4.2,1.5424,4.25,3,1.5757,1,1.1616
25,1,14,14,4.2,1.0478,4.3706,2,1.4112,1,0.96481
25,1,15,15,4.2,2.0989,3.6422,3,1.0191,0,1.3567
25,1,16,16,4.2,2.1774,4.1624,2,1.9204,0,0.51907
25,1,17,17,4.2,2.2082,4.3107,2,7.4803,1,1.6548
25,1,18,18,4.2,1.5088,3.9379,3,1.2134,1,0.30154
25,1,19,19,4.2,1.1778,4.8404,3,2.6141,1,0.32697
25,1,20,20,4.2,1.1665,5.8299,1,1.8165,1,1.9526
25,1,21,21,4.2,0.76434,4.3825,3,2.0366,0,0.34297
25,1,22,22,4.2,1.2912,4.0992,3,2.0754,1,0.23524
25,1,23,23,4.2,0.94488,4.9173,2,1.8604,1,0.6881
25,1,24,24,4.2,1.456,4.9093,2,2.0918,1,4.0099
25,1,25,25,4.2,0.83717,3.7728,3,1.8536,0,2.3935
25,1,26,26,4.2,0.70673,4.276,2,2.3673,1,1.639
25,1,27,27,4.2,1.1647,5.6317,2,1.9448,1,0.32624
25,1,28,28,4.2,1.2624,5.1054,3,2.3649,1,0.64047
25,1,29,29,4.2,0.72509,4.9775,2,1.0922,1,0.42503
25,1,30,30,4.2,1.6271,5.2634,2,3.9812,0,0.52418
25,1,31,31,4.2,1.2388,5.9354,3,1.5345,1,0.40511
25,1,32,32,4.2,0.71486,4.2539,2,3.988,0,0.80123
25,1,33,33,4.2,1.4492,5.0699,2,1.4248,1,0.46251
25,1,34,34,4.2,0.60996,4.2297,3,1.3578,1,1.0502
25,1,35,35,4.2,0.72423,4.726,3,1.2916,1,0.6377
25,1,36,36,4.2,0.76641,5.2681,2,2.3862,1,1.0416
25,1,37,37,4.2,1.4702,4.9073,3,2.1138,0,2.2779
25,1,38,38,4.2,1.4651,4.7946,2,2.1924,0,0.93688
25,1,39,39,4.2,1.631,5.0171,2,2.9605,1,0.34805
25,1,40,40,4.2,1.7884,3.9072,3,1.2413,0,3.013
25,1,41,41,4.2,2.7152,5.052,1,1.5623,1,0.99112
25,1,42,42,4.2,1.2641,5.7681,2,3.2846,1,0.62976
25,1,43,43,4.2,1.3305,4.4183,3,1.4753,1,1.4757
25,1,44,44,4.2,1.815,3.9057,2,1.2145,1,0.56467
25,1,45,45,4.2,1.3205,5.2591,3,2.0516,1,0.30361
25,1,46,46,4.2,1.4066,5.3356,3,1.3113,1,0.66388
25,1,47,47,4.2,1.3875,4.5329,2,1.3733,0,2.0119
25,1,48,48,4.2,1.1825,4.6203,3,1.1151,1,0.46596
25,1,49,49,4.2,0.81633,4.5566,3,1.6387,1,0.93367
25,1,50,50,4.2,0.6859,5.2339,3,3.4092,1,3.8453
25,1,51,51,4.2,1.8147,5.6801,1,1.8046,1,1.5204
25,1,52,52,4.2,2.5228,5.7441,1,1.0273,0,2.0288
25,1,53,53,4.2,0.66195,5.4806,3,1.7942,1,0.46326
25,1,54,54,4.2,0.80152,6.0826,2,1.8191,1,0.95472
25,1,55,55,4.2,0.8983,3.5714,2,1.3899,0,0.74882
25,1,56,56,4.2,0.90682,4.8373,2,3.6268,0,1.0463
25,1,57,57,4.2,0.68443,4.7074,2,1.9892,1,2.1084
25,1,58,58,4.2,1.4058,4.534,3,1.7246,0,1.0619
25,1,59,59,4.2,1.1491,4.7338,2,2.6359,1,0.75236
25,1,60,60,4.2,1.5845,3.9431,1,1.6431,1,0.5767
26,1,1,1,4.2,2.2045,4.0691,3,2.2357,1,1.4538
26,1,2,2,4.2,8.7745,3.1321,1,1.0764,1,2.4898
26,1,3,3,4.2,1.0578,4.0133,2,6.5475,0,1.7152
26,1,4,4,4.2,1.0017,4.2939,3,1.819,0,2.1054
26,1,5,5,4.2,0.67348,4.7262,3,1.8285,1,1.2393
26,1,6,6,4.2,1.6585,4.0995,2,2.2498,0,3.238
26,1,7,7,4.2,1.4076,4.3118,2,1.0821,0,0.47917
26,1,8,8,4.2,1.2082,4.3259,1,1.5543,0,0.53276
26,1,9,9,4.2,3.2246,3.6573,1,1.5919,0,0.55035
26,1,10,10,4.2,0.98332,4.4809,2,2.722,1,0.39294
26,1,11,11,4.2,0.6889,6.2499,1,4.1435,1,0.40554
26,1,12,12,4.2,1.1373,3.9209,2,1.9883,0,0.6335
26,1,13,13,4.2,0.99628,2.3557,2,1.8199,0,1.7311
26,1,14,14,4.2,0.85712,3.3884,2,3.8535,1,0.90408
26,1,15,15,4.2,0.85192,4.4945,3,1.2443,1,1.5897
26,1,16,16,4.2,0.78204,4.4166,2,1.7251,1,0.72384
26,1,17,17,4.2,1.3722,4.5967,3,1.3959,1,0.44225
26,1,18,18,4.2,0.90582,4.4482,2,1.7474,1,0.21812
26,1,19,19,4.2,6.1318,5.2555,1,1.601,1,0.69322
26,1,20,20,4.2,1.1951,3.992,2,3.7792,0,0.37287
26,1,21,21,4.2,0.96161,4.8808,1,2.4328,1,0.28709
26,1,22,22,4.2,0.78388,3.8069,2,2.8797,1,2.0116
26,1,23,23,4.2,1.1662,4.0789,3,2.0708,1,0.30706
26,1,24,24,4.2,0.67076,3.8355,3,2.3361,0,0.26692
26,1,25,25,4.2,0.83439,4.0946,3,1.2313,1,1.3156
26,1,26,26,4.2,0.98037,3.8311,3,0.72444,0,1.2761
26,1,27,27,4.2,0.67649,4.4409,2,3.028,1,0.50955
26,1,28,28,4.2,0.70435,4.6107,2,2.1556,0,3.0828
26,1,29,29,4.2,0.6927,4.3395,1,1.191,1,0.69886
26,1,30,30,4.2,0.66827,4.8083,2,1.5531,1,0.24385
26,1,31,31,4.2,0.58274,4.443,2,1.8171,1,0.30422
26,1,32,32,4.2,0.44678,3.9079,3,0.71728,1,0.23106
26,1,33,33,4.2,0.67508,4.4653,2,0.64756,1,0.41668
26,1,34,34,4.2,0.98423,4.5194,2,2.1504,1,0.60289
26,1,35,35,4.2,0.9832,4.8296,1,1.6321,1,0.85268
26,1,36,36,4.2,0.79898,5.3181,1,1.9983,1,0.65012
26,1,37,37,4.2,0.62419,4.5018,3,2.0752,1,1.1364
26,1,38,38,4.2,0.88902,5.0492,2,4.2591,1,0.33056
26,1,39,39,4.2,0.66179,3.5068,2,1.4789,0,1.5668
26,1,40,40,4.2,1.1145,4.4814,3,2.4971,0,2.1275
26,1,41,41,4.2,0.52843,4.7433,3,1.2677,1,2.0548
26,1,42,42,4.2,0.71645,4.2561,3,1.8895,1,0.72171
26,1,43,43,4.2,0.59679,4.3202,3,1.386,1,1.2567
26,1,44,44,4.2,0.43454,4.5331,3,2.024,0,1.6837
26,1,45,45,4.2,0.62843,4.1557,3,1.7648,0,1.0499
26,1,46,46,4.2,0.48275,4.3434,3,1.493,1,1.0639
26,1,47,47,4.2,0.70687,4.4627,3,1.5327,1,5.4039
26,1,48,48,4.2,0.54525,4.8562,2,1.3128,1,0.34186
26,1,49,49,4.2,0.46878,5.6211,1,1.4881,1,0.25814
26,1,50,50,4.2,0.39796,3.9546,3,1.7636,0,1.4922
26,1,51,51,4.2,0.6953,3.4057,3,1.416,0,0.91555
26,1,52,52,4.2,0.97837,5.2047,3,0.83956,1,0.88675
26,1,53,53,4.2,0.37914,4.0945,2,1.1577,1,1.0492
26,1,54,54,4.2,0.99087,3.9246,3,1.8306,0,0.9533
26,1,55,55,4.2,0.59803,4.7049,3,1.8495,0,1.7775
26,1,56,56,4.2,1.0369,4.7219,2,0.67403,1,2.1516
26,1,57,57,4.2,1.889,4.5586,3,0.80377,1,1.4971
26,1,58,58,4.2,0.76181,3.1307,2,1.0383,1,0.69685
26,1,59,59,4.2,0.9856,4.1321,2,1.3984,0,0.52779
26,1,60,60,4.2,0.53692,4.0846,3,1.9644,0,0.5252
27,1,1,1,4.2,1.9792,4.3136,3,1.385,1,1.2315
27,1,2,2,4.2,1.6629,4.2295,2,1.3834,0,2.6672
27,1,3,3,4.2,0.82236,3.4737,2,2.981,0,1.0628
27,1,4,4,4.2,0.85426,4.1226,3,1.302,1,0.68167
27,1,5,5,4.2,1.8786,3.5888,2,1.1912,1,0.78705
27,1,6,6,4.2,0.94226,2.839,3,1.3307,0,1.3402
27,1,7,7,4.2,1.2015,3.4813,2,1.6365,1,1.6578
27,1,8,8,4.2,0.61894,3.6958,3,1.898,1,0.62863
27,1,9,9,4.2,0.61526,4.1302,2,1.5844,1,0.68005
27,1,10,10,4.2,0.66885,3.9709,2,1.263,1,0.53945
27,1,11,11,4.2,1.1317,3.5333,2,2.1132,0,0.94143
27,1,12,12,4.2,0.48257,2.8068,2,1.3683,0,0.76818
27,1,13,13,4.2,0.47383,2.6517,3,1.6522,1,0.86853
27,1,14,14,4.2,0.52712,4.0165,3,1.5009,1,0.61684
27,1,15,15,4.2,4.5544,3.5532,2,1.277,0,0.55126
27,1,16,16,4.2,0.56924,4.0843,3,1.4634,1,0.70005
27,1,17,17,4.2,3.6766,3.9571,2,2.4918,1,0.74619
27,1,18,18,4.2,1.2457,2.9287,3,1.4501,0,0.47965
27,1,19,19,4.2,0.85901,2.3397,2,1.4203,0,0.53265
27,1,20,20,4.2,0.79144,4.1636,2,1.2731,1,2.5605
27,1,21,21,4.2,0.62464,4.2024,3,0.83952,1,0.5122
27,1,22,22,4.2,0.79532,3.9936,2,1.0682,1,0.80706
27,1,23,23,4.2,0.46589,2.0053,1,1.2202,0,0.74568
27,1,24,24,4.2,0.43472,2.8952,2,1.499,0,0.67783
27,1,25,25,4.2,0.38708,3.0743,2,1.2935,1,0.76555
27,1,26,26,4.2,0.40696,3.1262,3,1.7959,1,0.61635
27,1,27,27,4.2,0.4303,3.9956,3,1.0331,0,0.80514
27,1,28,28,4.2,0.50097,4.1449,1,1.6829,1,0.61585
27,1,29,29,4.2,0.49621,3.6834,2,1.3254,0,2.2769
27,1,30,30,4.2,0.49234,3.778,3,1.1088,1,0.56444
27,1,31,31,4.2,0.5186,3.2098,2,1.4328,1,0.45418
27,1,32,32,4.2,0.56499,2.5544,2,1.4423,0,0.57541
27,1,33,33,4.2,0.45591,3.5746,3,0.80554,0,0.63649
27,1,34,34,4.2,0.51989,3.9362,1,1.3611,1,0.75148
27,1,35,35,4.2,0.58337,2.7688,1,1.2029,0,0.54503
27,1,36,36,4.2,0.38799,3.8745,3,0.52909,1,1.4895
27,1,37,37,4.2,0.45906,3.6038,3,1.5637,0,3.7512
27,1,38,38,4.2,0.56579,0.26719,1,1.0084,0,0.50151
27,1,39,39,4.2,0.64207,4.4289,2,1.0814,1,0.66551
27,1,40,40,4.2,0.68518,4.0203,2,1.3004,0,1.4797
27,1,41,41,4.2,0.85227,4.6454,3,1.2067,0,1.3618
27,1,42,42,4.2,0.34518,3.6444,2,1.246,0,1.6003
27,1,43,43,4.2,0.70718,2.7503,2,1.2388,0,0.38532
27,1,44,44,4.2,1.1349,3.8572,2,1.1408,1,0.48712
27,1,45,45,4.2,0.46027,2.9422,1,1.0209,0,0.58525
27,1,46,46,4.2,4.024,4.1329,2,1.8508,1,1.1905
27,1,47,47,4.2,0.58925,3.9628,2,0.95919,1,0.57721
27,1,48,48,4.2,0.44768,4.8677,2,3.3497,0,0.5509
27,1,49,49,4.2,0.31041,5.5183,2,3.7607,0,1.4199
27,1,50,50,4.2,0.818,3.4455,3,1.2346,1,0.95616
27,1,51,51,4.2,0.53299,3.8061,3,2.591,1,0.5323
27,1,52,52,4.2,0.18016,3.0676,1,1.4126,0,0.52823
27,1,53,53,4.2,0.46391,3.7041,3,1.1645,1,0.56434
27,1,54,54,4.2,0.34727,4.2176,2,2.5238,1,0.80875
27,1,55,55,4.2,0.70104,4.1697,2,11.217,1,1.1448
27,1,56,56,4.2,0.94512,3.2935,2,1.2578,0,0.70021
27,1,57,57,4.2,0.42557,3.4906,2,8.3808,0,0.48877
27,1,58,58,4.2,0.49074,3.2144,3,1.251,0,0.4935
27,1,59,59,4.2,0.42388,3.3264,3,1.0706,1,0.68339
27,1,60,60,4.2,0.43971,3.7128,2,1.3098,1,0.62614
28,1,1,1,4.2,1.5829,5.0038,2,1.637,1,8.5583
28,1,2,2,4.2,0.84492,4.6302,3,1.7443,1,2.5276
28,1,3,3,4.2,0.96257,3.7314,3,2.0869,0,5.0422
28,1,4,4,4.2,1.0857,4.1939,2,1.5689,0,3.7192
28,1,5,5,4.2,1.5753,5.2868,2,1.6498,1,1.1284
28,1,6,6,4.2,0.80755,3.863,2,1.6473,0,1.0171
28,1,7,7,4.2,1.1247,4.5005,2,2.6372,1,0.9784
28,1,8,8,4.2,0.77033,5.0477,2,2.17,0,1.7424
28,1,9,9,4.2,1.5004,5.4173,2,2.0965,1,0.57634
28,1,10,10,4.2,1.7861,3.1813,3,1.5624,0,0.71656
28,1,11,11,4.2,0.8308,4.0573,2,3.1284,1,0.87312
28,1,12,12,4.2,1.0451,4.1672,2,1.3133,0,0.62999
28,1,13,13,4.2,0.62292,5.4514,2,1.7341,1,0.84219
28,1,14,14,4.2,1.3869,4.9208,1,1.0632,0,2.1271
28,1,15,15,4.2,0.85093,5.8068,2,1.5265,1,0.77631
28,1,16,16,4.2,1.1133,3.6182,2,1.3117,0,0.60279
28,1,17,17,4.2,1.5181,5.3673,3,1.2098,1,0.52668
28,1,18,18,4.2,1.0649,3.6574,3,1.292,0,1.0263
28,1,19,19,4.2,0.98663,3.1716,2,1.3908,0,0.54946
28,1,20,20,4.2,0.67411,4.0142,2,1.2602,1,0.91428
28,1,21,21,4.2,0.74858,5.4671,2,1.2722,1,0.48498
28,1,22,22,4.2,0.9644,4.6578,2,2.1891,0,0.68265
28,1,23,23,4.2,2.0278,4.6893,1,2.4492,0,4.9176
28,1,24,24,4.2,1.0432,5.3027,2,2.5625,0,1.9754
28,1,25,25,4.2,1.0389,5.7727,3,2.0769,1,1.0494
28,1,26,26,4.2,0.77069,4.8344,3,1.2739,1,0.70035
28,1,27,27,4.2,1.3427,6.9143,2,1.3016,1,0.65608
28,1,28,28,4.2,1.2446,4.7398,3,1.901,0,0.65394
28,1,29,29,4.2,1.2841,2.7671,3,1.3756,0,0.60052
28,1,30,30,4.2,1.0438,4.5019,2,1.2148,1,0.53979
28,1,31,31,4.2,0.84651,5.4319,2,1.2204,0,7.8833
28,1,32,32,4.2,1.6678,4.8663,2,1.4352,1,4.2935
28,1,33,33,4.2,4.2188,4.6269,2,1.5181,0,0.56757
28,1,34,34,4.2,0.48486,4.8961,2,1.6568,0,1.2095
28,1,35,35,4.2,3.1356,4.7806,2,3.0078,0,1.3693
28,1,36,36,4.2,0.79297,5.4415,3,2.2628,1,0.851
28,1,37,37,4.2,0.71416,6.7204,2,1.1328,1,0.65493
28,1,38,38,4.2,0.5809,4.2789,2,1.2707,0,4.0344
28,1,39,39,4.2,0.62771,5.2047,2,1.1765,1,0.76513
28,1,40,40,4.2,0.57705,3.7413,2,1.1809,0,0.87667
28,1,41,41,4.2,1.085,3.9454,2,1.7956,1,3.589
28,1,42,42,4.2,1.1193,3.2829,2,1.1357,0,0.45672
28,1,43,43,4.2,1.0606,4.628,2,1.4178,1,1.1306
28,1,44,44,4.2,0.94714,5.819,2,1.8726,0,1.0336
28,1,45,45,4.2,1.1201,4.2956,3,1.608,1,1.6
28,1,46,46,4.2,0.71119,5.0428,2,1.5031,1,1.219
28,1,47,47,4.2,0.72612,5.2279,2,1.4542,0,0.72071
28,1,48,48,4.2,0.72392,5.7514,2,1.7593,1,0.66218
28,1,49,49,4.2,1.0012,4.4565,2,1.9768,1,1.6255
28,1,50,50,4.2,0.65203,6.7341,3,2.3183,1,2.2148
28,1,51,51,4.2,1.3612,4.4651,2,1.5609,0,1.5642
28,1,52,52,4.2,0.73554,3.384,2,1.6268,1,2.3639
28,1,53,53,4.2,0.89466,4.5543,2,1.3122,1,1.2794
28,1,54,54,4.2,0.74411,4.6679,3,1.3985,1,2.2402
28,1,55,55,4.2,0.98954,5.5233,1,2.3028,0,1.1046
28,1,56,56,4.2,4.4616,6.5324,2,5.0922,1,1.739
28,1,57,57,4.2,0.84857,4.2921,3,1.7418,0,0.74856
28,1,58,58,4.2,0.95433,4.6849,2,1.2379,1,0.54685
28,1,59,59,4.2,1.6304,6.7428,1,5.0136,1,1.546
28,1,60,60,4.2,0.9418,4.4525,2,1.6012,0,2.0178
