Subj_idx,Block,Trial_in_block,Trial,Stimulus,RT_start,Response,Confidence,RT_conf,ErrorDirection,RT_error
1,3,1,121,4.2,1.3403,4.6322,2,1.1111,0,0.79989
1,3,2,122,2.1,0.65488,1.8641,2,1.359,0,0.8769
1,3,3,123,2.1,0.87618,2.8594,3,1.232,1,1.4306
1,3,4,124,2.1,0.49707,2.2901,1,1.3897,0,0.93035
1,3,5,125,4.2,0.48811,3.666,2,1.1025,0,1.0387
1,3,6,126,2.1,0.50048,2.7943,3,2.4272,1,1.0219
1,3,7,127,4.2,0.53844,4.5086,3,4.8839,0,2.1794
1,3,8,128,4.2,0.36698,3.6839,2,1.0006,1,0.61187
1,3,9,129,4.2,0.55513,4.3849,1,1.4058,0,0.80735
1,3,10,130,2.1,0.6082,2.611,2,1.2795,0,0.73556
1,3,11,131,4.2,0.51505,3.3667,3,0.55054,0,0.85029
1,3,12,132,4.2,0.94245,4.4449,2,1.6577,1,0.72876
1,3,13,133,4.2,0.4538,4.2272,1,1.3307,1,0.59608
1,3,14,134,2.1,0.47412,2.7346,3,1.2136,1,1.5182
1,3,15,135,2.1,0.6515,2.0416,3,0.82932,1,2.5525
1,3,16,136,4.2,0.39544,3.4366,2,1.1024,0,1.7934
1,3,17,137,4.2,0.37946,3.5732,2,1.4196,1,1.6459
1,3,18,138,4.2,0.7606,4.4705,2,1.0809,0,0.79857
1,3,19,139,2.1,0.48314,2.456,3,1.4448,0,1.4088
1,3,20,140,4.2,0.45093,3.572,2,1.8346,0,1.5088
1,3,21,141,2.1,0.39202,2.6351,2,1.4499,0,0.75599
1,3,22,142,4.2,0.53661,3.9341,1,1.463,1,0.9817
1,3,23,143,2.1,1.0422,2.6789,2,1.6747,0,0.59293
1,3,24,144,2.1,0.56669,2.6375,3,1.5093,0,0.7195
1,3,25,145,4.2,0.35309,3.2705,2,1.1365,0,2.1201
1,3,26,146,2.1,0.71571,1.9879,3,0.84819,0,1.487
1,3,27,147,2.1,0.80306,2.448,2,1.7733,0,0.88503
1,3,28,148,2.1,0.76887,2.2342,2,0.79863,0,1.025
1,3,29,149,4.2,0.68741,4.2717,2,1.1337,0,0.70061
1,3,30,150,2.1,0.54008,2.3176,3,1.1368,1,1.4009
1,3,31,151,2.1,0.608,2.4872,2,1.1834,0,1.1165
1,3,32,152,2.1,0.52713,2.0733,2,1.3895,0,0.64988
1,3,33,153,2.1,0.4145,2.1004,3,0.82152,0,0.7168
1,3,34,154,2.1,0.52947,2.267,2,1.6538,0,1.028
1,3,35,155,4.2,0.41803,3.4026,3,1.405,0,0.97472
1,3,36,156,2.1,0.54629,2.3684,2,1.3165,0,0.82341
1,3,37,157,2.1,0.46363,1.9642,1,1.505,0,0.85048
1,3,38,158,4.2,0.50777,3.9613,2,1.1981,1,0.58472
1,3,39,159,2.1,0.46787,2.6599,2,0.88613,0,1.4228
1,3,40,160,4.2,0.4727,4.3077,2,0.83384,1,0.74546
1,3,41,161,4.2,0.5503,4.3359,2,2.5825,0,1.0442
1,3,42,162,2.1,0.56888,2.1765,2,1.1797,1,2.1028
1,3,43,163,4.2,0.73133,4.1297,2,1.5599,1,0.70773
1,3,44,164,4.2,0.44163,3.4552,1,1.3625,1,1.837
1,3,45,165,4.2,0.39057,3.5342,2,1.6993,1,1.4972
1,3,46,166,4.2,0.39215,3.9503,2,1.6634,1,0.71935
1,3,47,167,4.2,0.38136,3.1196,2,1.2585,0,1.5075
1,3,48,168,2.1,0.59482,1.8725,2,1.5583,0,0.66218
1,3,49,169,2.1,0.5343,2.8855,2,1.3499,0,1.306
1,3,50,170,2.1,0.49947,2.4623,2,1.1693,0,0.93773
1,3,51,171,2.1,0.92647,3.0173,2,0.81858,1,0.60131
1,3,52,172,2.1,0.46036,2.5802,2,0.88805,1,1.0436
1,3,53,173,4.2,0.43016,3.5046,2,1.2597,1,0.732
1,3,54,174,4.2,0.49138,4.4557,2,1.3938,1,0.60788
1,3,55,175,2.1,0.60975,3.4446,2,1.2115,0,0.83456
1,3,56,176,4.2,0.43337,4.0432,2,1.2404,1,0.91028
1,3,57,177,2.1,0.63615,2.6292,2,1.5404,0,0.59261
1,3,58,178,4.2,0.36578,3.2557,1,1.6209,1,0.66949
1,3,59,179,4.2,0.3674,3.301,2,1.3698,1,1.5243
1,3,60,180,4.2,0.36144,4.7758,2,0.96795,1,1.3987
1,3,61,181,4.2,0.42415,3.5668,2,1.3394,1,1.5053
1,3,62,182,2.1,0.48123,2.4255,2,0.94168,1,0.80945
1,3,63,183,4.2,0.34107,4.343,1,0.94789,1,0.80006
1,3,64,184,4.2,0.42152,3.7899,2,1.6326,0,1.5975
1,3,65,185,2.1,1.0065,2.4068,2,1.0286,0,0.54315
1,3,66,186,2.1,0.43991,1.9796,2,1.4699,1,1.0173
1,3,67,187,2.1,0.65558,2.2712,2,0.91472,1,0.55105
1,3,68,188,4.2,0.41805,3.4945,2,1.312,1,0.63193
1,3,69,189,2.1,0.55975,2.4204,2,1.0603,1,0.58729
1,3,70,190,4.2,0.47396,2.2958,2,1.0458,0,0.57227
1,3,71,191,2.1,0.49585,2.6037,2,1.0821,1,0.77758
1,3,72,192,2.1,0.64733,1.7947,2,0.88899,1,0.75258
1,3,73,193,2.1,0.46245,2.1659,2,0.78612,0,0.73661
1,3,74,194,4.2,0.37039,3.4507,2,1.453,1,0.98399
1,3,75,195,2.1,0.87357,2.1826,2,0.69603,1,0.79799
1,3,76,196,4.2,0.44055,4.3098,1,1.4201,1,0.73585
1,3,77,197,4.2,0.39557,3.8194,2,1.3699,0,0.7022
1,3,78,198,4.2,0.42677,4.1661,2,1.426,1,1.3273
1,3,79,199,4.2,0.38364,3.4364,2,1.1007,1,1.2069
1,3,80,200,2.1,0.54928,2.4835,3,1.0337,0,1.319
1,3,81,201,2.1,0.40333,2.5391,2,0.80275,1,1.2999
1,3,82,202,4.2,0.34121,3.4434,2,1.1876,0,0.59032
1,3,83,203,4.2,0.50094,2.6608,1,0.90919,0,0.65311
1,3,84,204,4.2,0.63719,3.5174,2,2.2747,0,1.0305
1,3,85,205,4.2,0.3675,3.695,1,1.829,1,1.3062
1,3,86,206,4.2,0.37897,4.0666,2,0.83218,0,2.0827
1,3,87,207,2.1,0.48531,2.1339,2,1.1127,0,1.022
1,3,88,208,2.1,0.51243,3.1999,2,2.3145,1,0.71003
1,3,89,209,2.1,0.58224,2.5448,3,1.1577,0,1.135
1,3,90,210,2.1,0.64467,2.4682,2,0.95525,0,0.56051
2,3,1,121,2.1,0.90934,2.4424,2,2.3365,1,0.55366
2,3,2,122,4.2,0.91368,4.4046,3,2.0228,1,0.81628
2,3,3,123,2.1,1.1613,2.3409,2,1.5827,0,0.95717
2,3,4,124,2.1,0.74734,2.0307,3,1.6055,0,1.9315
2,3,5,125,2.1,0.9043,2.6726,2,3.1211,0,7.0655
2,3,6,126,2.1,0.64311,2.5457,2,2.6085,0,3.7425
2,3,7,127,2.1,0.92107,2.6282,2,2.2597,1,3.654
2,3,8,128,2.1,2.1043,2.9965,1,1.8892,1,4.7073
2,3,9,129,2.1,1.526,3.3518,2,2.676,0,4.2821
2,3,10,130,4.2,1.043,4.2652,2,5.5998,0,1.6818
2,3,11,131,2.1,1.4749,2.3386,2,1.1284,0,1.5332
2,3,12,132,4.2,0.93206,5.8857,2,4.0921,1,3.7592
2,3,13,133,4.2,1.9307,4.2548,2,1.5398,1,1.0649
2,3,14,134,2.1,0.79103,2.0935,2,1.6975,0,2.3486
2,3,15,135,4.2,0.52835,3.8192,3,1.5937,0,1.216
2,3,16,136,4.2,1.1025,3.4035,3,1.5956,0,1.7459
2,3,17,137,4.2,0.68301,3.6823,3,1.0675,0,1.5108
2,3,18,138,4.2,0.64522,3.875,3,3.0399,0,1.1627
2,3,19,139,4.2,1.3442,4.1651,2,1.651,1,1.4408
2,3,20,140,2.1,0.81107,1.9155,3,1.7427,0,1.1361
2,3,21,141,2.1,0.59578,2.2543,3,1.2527,0,1.3882
2,3,22,142,4.2,0.53027,4.6978,2,1.4008,0,1.0713
2,3,23,143,2.1,0.60151,2.2224,2,1.3317,0,1.1597
2,3,24,144,2.1,0.65105,2.0298,3,3.8215,0,0.91046
2,3,25,145,4.2,0.59279,3.6908,3,4.3793,0,0.5451
2,3,26,146,4.2,0.80661,4.3652,1,2.8305,1,4.3995
2,3,27,147,2.1,0.69162,1.8132,3,1.6954,0,1.0357
2,3,28,148,2.1,0.51839,1.7956,2,1.2719,0,1.1885
2,3,29,149,4.2,0.63307,4.0645,3,2.168,0,0.97979
2,3,30,150,2.1,0.64004,2.3396,2,2.3349,0,2.0924
2,3,31,151,4.2,1.3463,4.2903,2,1.3951,0,0.57588
2,3,32,152,4.2,0.5093,4.0841,3,0.97975,0,0.48329
2,3,33,153,4.2,0.77526,4.1076,2,1.1252,0,0.60768
2,3,34,154,4.2,0.13929,5.2198,3,1.4053,0,1.0193
2,3,35,155,2.1,0.54658,1.9193,3,3.2426,1,3.2677
2,3,36,156,4.2,0.69163,4.3661,3,2.6969,0,1.5872
2,3,37,157,4.2,0.54147,4.187,3,3.6305,0,1.9773
2,3,38,158,2.1,0.60446,1.8886,2,1.67,1,0.94828
2,3,39,159,2.1,0.4645,2.2681,2,1.1039,1,0.62391
2,3,40,160,4.2,0.55561,4.262,2,1.4906,1,1.3579
2,3,41,161,2.1,0.68184,2.0727,2,1.1081,0,1.2258
2,3,42,162,4.2,0.51485,4.0971,2,1.2342,0,3.7151
2,3,43,163,2.1,1.2443,2.139,2,6.0248,0,1.947
2,3,44,164,4.2,0.74731,3.8542,3,1.3039,0,0.59124
2,3,45,165,4.2,0.62208,4.1266,2,1.151,0,1.3636
2,3,46,166,2.1,0.64703,1.9406,3,1.5606,0,1.3277
2,3,47,167,2.1,0.57712,2.1968,3,4.2703,1,2.2072
2,3,48,168,2.1,0.53462,2.1095,3,1.6288,0,1.4534
2,3,49,169,4.2,0.62852,4.0545,2,1.2812,1,0.61761
2,3,50,170,4.2,0.60174,4.1899,2,1.4402,0,1.3812
2,3,51,171,2.1,0.59772,1.8455,2,1.1606,0,0.38459
2,3,52,172,2.1,0.49006,1.9348,2,1.16,0,0.37238
2,3,53,173,2.1,0.46934,1.8063,3,2.4927,0,3.0461
2,3,54,174,2.1,0.4682,2.0192,2,1.5103,0,1.6433
2,3,55,175,2.1,0.74393,2.2868,2,1.5108,1,2.4067
2,3,56,176,4.2,0.62416,4.0606,2,1.3998,1,0.75568
2,3,57,177,4.2,0.78009,4.2019,2,1.6876,0,1.7271
2,3,58,178,4.2,0.65927,4.354,2,1.0784,1,1.9835
2,3,59,179,2.1,0.63173,1.9485,3,1.0904,0,0.92056
2,3,60,180,2.1,0.53755,2.2928,2,1.3138,1,0.66245
2,3,61,181,2.1,0.78316,2.1863,2,1.3062,0,1.9556
2,3,62,182,2.1,0.56538,1.9653,2,1.3492,1,3.0612
2,3,63,183,4.2,0.52405,3.9941,2,1.2533,0,1.6255
2,3,64,184,2.1,0.67302,1.5399,2,2.5281,0,3.599
2,3,65,185,4.2,0.48281,3.3567,2,2.8835,0,1.892
2,3,66,186,4.2,1.1602,4.2989,2,2.7316,1,2.3081
2,3,67,187,2.1,1.3973,2.2425,3,3.8453,0,0.45624
2,3,68,188,4.2,0.81047,3.783,2,3.3407,0,2.1741
2,3,69,189,4.2,0.5846,4.2471,3,3.7084,0,0.89116
2,3,70,190,4.2,0.54036,3.465,2,1.5968,0,1.7698
2,3,71,191,4.2,0.65064,3.5937,2,2.0306,0,1.9937
2,3,72,192,4.2,0.5943,3.918,3,1.6439,0,1.8568
2,3,73,193,4.2,0.80662,4.2741,2,2.7795,1,1.0229
2,3,74,194,2.1,0.8264,1.9817,2,4.0938,0,1.5896
2,3,75,195,4.2,0.65722,3.6786,2,2.4145,0,0.5983
2,3,76,196,2.1,0.56232,1.9402,2,1.446,0,0.58905
2,3,77,197,2.1,0.4618,1.9286,3,3.0611,0,0.69399
2,3,78,198,4.2,0.45809,3.6686,2,1.7978,0,1.5338
2,3,79,199,2.1,0.60515,2.2259,2,1.1672,0,0.29572
2,3,80,200,2.1,0.43909,2.4166,2,1.7987,0,0.47165
2,3,81,201,2.1,0.5753,2.016,3,1.0676,0,0.44249
2,3,82,202,2.1,2.2015,1.9626,3,3.4213,0,1.7002
2,3,83,203,4.2,1.0773,4.2764,2,2.0057,0,1.4566
2,3,84,204,4.2,0.82985,4.4601,2,1.2506,0,1.3421
2,3,85,205,4.2,0.58033,4.4731,2,1.4046,1,2.2336
2,3,86,206,2.1,0.79947,1.6795,3,1.2679,1,1.1963
2,3,87,207,4.2,0.65048,4.291,2,1.3734,0,1.2008
2,3,88,208,4.2,0.66457,4.052,2,5.8344,1,1.5024
2,3,89,209,2.1,0.56072,1.939,2,3.0992,0,1.8678
2,3,90,210,4.2,0.98779,3.4485,2,1.6871,0,1.2763
3,3,1,121,2.1,0.67268,2.9246,3,1.4892,0,0.68196
3,3,2,122,4.2,0.57775,4.1218,2,1.9893,1,1.7058
3,3,3,123,4.2,0.87531,5.5241,1,3.732,0,1.0337
3,3,4,124,4.2,1.1548,3.6418,3,2.118,0,1.1586
3,3,5,125,2.1,2.1591,6.6134,1,2.3506,1,1.9675
3,3,6,126,2.1,1.4754,5.3088,1,0.94324,1,0.5974
3,3,7,127,2.1,1.5193,2.8606,2,1.7964,0,2.9162
3,3,8,128,4.2,1.4805,5.2244,2,1.3356,0,1.4891
3,3,9,129,4.2,0.84644,4.2801,3,2.2234,0,0.5011
3,3,10,130,2.1,2.6235,1.681,3,1.3702,1,1.1985
3,3,11,131,4.2,1.4277,3.3756,1,4.685,0,1.1922
3,3,12,132,2.1,1.4912,2.631,1,6.8919,1,1.676
3,3,13,133,4.2,6.3805,1.9852,2,1.4196,0,0.79215
3,3,14,134,2.1,0.93552,2.7394,2,1.9385,1,2.199
3,3,15,135,2.1,1.4166,2.97,1,1.3399,1,0.7508
3,3,16,136,4.2,0.63771,4.3623,2,2.5018,1,2.1048
3,3,17,137,2.1,2.877,4.3727,1,1.2471,1,0.64069
3,3,18,138,2.1,1.5445,2.6671,3,1.1241,0,1.0106
3,3,19,139,4.2,0.16432,5.1444,1,1.9814,1,1.1958
3,3,20,140,2.1,0.92609,3.1181,2,2.5296,1,1.9239
3,3,21,141,2.1,0.69341,3.1632,2,2.2596,1,0.61692
3,3,22,142,2.1,1.5534,4.2567,1,1.8444,0,1.0131
3,3,23,143,4.2,0.71967,5.8916,3,1.5817,1,1.0912
3,3,24,144,4.2,0.75931,4.3665,2,1.9328,0,1.7548
3,3,25,145,4.2,1.1512,5.9551,2,1.7874,1,1.8731
3,3,26,146,4.2,3.0098,3.0891,1,3.692,0,1.3197
3,3,27,147,4.2,1.3433,5.5579,3,2.7756,0,1.2223
3,3,28,148,4.2,4.6976,4.8214,1,2.3692,1,1.1823
3,3,29,149,4.2,1.8739,4.7434,2,1.6443,0,1.2603
3,3,30,150,2.1,1.28,3.6505,2,1.1468,1,0.88845
3,3,31,151,4.2,1.3187,4.8187,3,1.4837,0,1.6893
3,3,32,152,2.1,0.55297,2.9432,2,1.3012,1,0.76801
3,3,33,153,2.1,1.3868,3.0086,3,1.8736,0,0.64779
3,3,34,154,4.2,0.52617,5.1763,2,1.4521,1,1.2295
3,3,35,155,2.1,2.8158,2.7124,2,1.1478,0,1.5532
3,3,36,156,4.2,0.52271,5.4997,2,3.864,1,2.1017
3,3,37,157,4.2,1.1738,4.8701,2,1.7206,1,1.0627
3,3,38,158,4.2,1.3017,4.4468,3,1.7272,0,0.84318
3,3,39,159,2.1,3.5589,2.7047,3,1.1382,0,1.0878
3,3,40,160,2.1,2.1137,4.9958,1,1.5108,1,0.88978
3,3,41,161,4.2,1.6383,3.8878,2,1.044,0,1.173
3,3,42,162,4.2,11.61,3.5457,1,1.1326,1,1.8356
3,3,43,163,2.1,5.4412,4.6615,1,6.8318,1,0.91208
3,3,44,164,4.2,1.7043,6.0793,1,0.91154,1,0.51082
3,3,45,165,2.1,1.9192,3.4894,3,2.2974,1,0.89957
3,3,46,166,4.2,1.4089,4.7469,1,7.6216,1,0.93838
3,3,47,167,4.2,1.209,6.4456,1,1.1127,1,1.022
3,3,48,168,2.1,2.6677,3.3675,2,1.3235,0,1.6519
3,3,49,169,4.2,2.3474,3.5002,2,3.0371,1,1.1609
3,3,50,170,4.2,1.3288,6.1457,2,2.8241,0,1.7487
3,3,51,171,4.2,2.2319,5.8199,1,2.8655,1,0.83528
3,3,52,172,2.1,1.2571,4.2618,2,3.943,1,1.5444
3,3,53,173,2.1,0.94422,5.3236,1,1.8655,1,1.4162
3,3,54,174,2.1,0.6773,2.9167,3,1.3479,0,1.0
3,3,55,175,2.1,1.7724,3.4488,3,3.3403,0,1.004
3,3,56,176,2.1,1.4134,2.703,2,2.3417,1,2.5836
3,3,57,177,2.1,3.0035,3.6168,3,0.79947,0,0.89183
3,3,58,178,2.1,1.2382,2.0879,3,1.8047,0,1.3774
3,3,59,179,2.1,1.0787,3.0409,3,3.8181,1,3.3861
3,3,60,180,4.2,0.069397,4.2949,2,3.5476,1,3.8455
3,3,61,181,4.2,0.55709,4.9277,3,2.2622,0,1.3046
3,3,62,182,4.2,0.38856,5.2645,2,1.8271,1,0.47212
3,3,63,183,4.2,0.85645,5.8717,2,4.926,0,1.6651
3,3,64,184,2.1,1.2987,3.3808,2,1.9346,1,0.72058
3,3,65,185,4.2,4.7993,2.505,1,1.4421,0,0.84295
3,3,66,186,2.1,0.65113,2.4022,2,1.7776,0,1.7881
3,3,67,187,2.1,0.92344,2.7553,3,1.4772,0,0.76456
3,3,68,188,4.2,0.88671,4.4504,3,2.6417,0,0.75959
3,3,69,189,2.1,10.496,3.6602,2,1.9847,0,1.0708
3,3,70,190,4.2,0.81527,4.6257,2,1.2609,0,1.6448
3,3,71,191,4.2,1.2397,4.509,3,1.7111,1,2.4536
3,3,72,192,2.1,5.5097,3.1783,1,1.7627,1,1.4986
3,3,73,193,4.2,1.5183,6.011,3,2.2367,1,1.3985
3,3,74,194,2.1,1.8566,2.2804,3,2.7911,0,1.3658
3,3,75,195,2.1,2.1255,3.0463,2,7.9069,0,1.8627
3,3,76,196,4.2,8.3155,4.2991,2,1.3473,1,0.96657
3,3,77,197,4.2,6.5512,5.1006,1,2.3256,1,1.4927
3,3,78,198,4.2,0.65554,4.3969,2,4.6973,0,1.3447
3,3,79,199,4.2,1.674,4.632,3,1.5477,1,1.878
3,3,80,200,2.1,6.6382,3.079,1,3.1135,0,1.3604
3,3,81,201,2.1,0.99695,2.1201,3,1.8257,0,1.8993
3,3,82,202,4.2,1.3289,4.5259,2,1.0807,0,2.4076
3,3,83,203,2.1,3.5575,3.9732,2,0.82221,1,1.4947
3,3,84,204,4.2,1.4298,5.8656,1,1.5332,1,1.1602
3,3,85,205,2.1,1.2885,1.8195,3,1.0603,0,0.99081
3,3,86,206,4.2,1.6083,5.3643,1,1.1073,1,0.7861
3,3,87,207,2.1,0.77016,2.4029,2,1.5208,0,1.1415
3,3,88,208,2.1,1.3576,2.6081,2,1.0193,1,1.9518
3,3,89,209,2.1,1.4389,2.0427,3,1.2798,1,2.036
3,3,90,210,2.1,0.83364,2.1637,3,1.3465,0,0.63961
4,3,1,121,2.1,0.93116,1.2045,2,2.1448,0,0.2685
4,3,2,122,4.2,0.55864,3.0501,1,2.9452,0,0.13211
4,3,3,123,4.2,0.64048,3.8021,3,1.3683,0,0.30788
4,3,4,124,4.2,1.28,4.4033,1,1.7392,0,0.20906
4,3,5,125,4.2,0.48877,3.0476,2,1.9689,0,0.32846
4,3,6,126,4.2,0.8854,3.5712,1,2.5533,0,0.23848
4,3,7,127,4.2,0.67303,3.4306,3,1.4604,1,0.15817
4,3,8,128,2.1,0.63,1.6946,2,1.9456,0,0.30514
4,3,9,129,4.2,0.65684,2.9246,3,1.8048,0,0.20801
4,3,10,130,4.2,0.59432,4.0765,3,1.9382,1,0.18576
4,3,11,131,2.1,0.88117,1.0196,2,1.8162,0,0.46163
4,3,12,132,4.2,0.57741,3.6701,3,1.5174,0,0.23828
4,3,13,133,2.1,0.90003,1.6452,3,2.7808,1,0.82138
4,3,14,134,4.2,0.81786,4.3809,1,3.303,0,0.23559
4,3,15,135,2.1,0.5297,1.4458,2,2.4387,0,0.54424
4,3,16,136,4.2,0.42355,4.4432,3,1.3409,1,0.29099
4,3,17,137,2.1,1.0099,1.0708,3,1.7955,0,0.6761
4,3,18,138,4.2,0.64278,1.1374,1,1.661,0,0.69712
4,3,19,139,4.2,0.72279,2.9116,3,1.5276,0,0.19146
4,3,20,140,4.2,0.90294,3.2348,2,1.4609,0,0.69742
4,3,21,141,2.1,0.66636,1.4323,2,2.6895,0,0.19463
4,3,22,142,2.1,0.81212,2.4121,3,2.3739,1,1.2315
4,3,23,143,2.1,0.56676,1.1284,3,1.6969,0,0.23892
4,3,24,144,2.1,0.79404,2.0736,2,1.7046,0,0.35459
4,3,25,145,4.2,0.4964,3.5848,2,2.0888,0,1.0392
4,3,26,146,2.1,0.26952,2.191,1,2.5038,0,0.18245
4,3,27,147,2.1,0.65359,1.3129,2,2.0903,0,0.20915
4,3,28,148,2.1,0.47245,2.1491,3,2.2032,0,0.13744
4,3,29,149,2.1,0.76054,2.1848,1,1.7569,0,2.516
4,3,30,150,2.1,1.9078,1.7848,3,2.4551,0,0.26292
4,3,31,151,4.2,0.13475,4.2136,2,2.358,1,0.25456
4,3,32,152,4.2,0.6457,3.7286,3,1.8063,1,0.16459
4,3,33,153,2.1,1.0176,2.6363,2,3.5552,0,0.59647
4,3,34,154,2.1,0.59394,2.2764,3,1.6403,0,0.36809
4,3,35,155,2.1,1.322,3.1908,2,2.6138,0,0.26953
4,3,36,156,2.1,0.55212,1.447,2,2.0015,0,0.16927
4,3,37,157,2.1,0.43924,1.2245,3,1.3823,0,0.47364
4,3,38,158,4.2,0.54704,4.4278,2,2.3212,0,0.80262
4,3,39,159,2.1,0.65131,1.2653,2,1.632,0,0.47143
4,3,40,160,2.1,0.52935,1.6038,2,3.525,0,0.20634
4,3,41,161,4.2,1.2202,4.7188,1,2.2947,1,0.57363
4,3,42,162,4.2,0.58953,2.9466,3,1.4506,0,0.39588
4,3,43,163,2.1,0.59627,1.7163,3,1.8791,0,0.16975
4,3,44,164,4.2,0.52867,3.9654,2,1.9771,0,0.15716
4,3,45,165,2.1,0.53482,1.2544,3,1.5808,0,0.76381
4,3,46,166,4.2,0.2068,2.7564,3,1.8723,0,1.0742
4,3,47,167,2.1,0.57092,0.90821,2,1.8681,0,0.22661
4,3,48,168,2.1,0.79062,2.9694,1,1.8449,0,0.37056
4,3,49,169,4.2,0.55555,3.857,2,1.9252,1,1.7974
4,3,50,170,2.1,0.57253,1.7192,3,1.8374,0,0.74713
4,3,51,171,4.2,0.51721,3.2668,2,1.2342,0,0.85733
4,3,52,172,4.2,0.43967,2.9019,3,1.911,0,0.2586
4,3,53,173,2.1,0.50084,2.5809,2,1.1712,0,1.0652
4,3,54,174,4.2,0.20211,3.3942,1,3.9555,0,0.68511
4,3,55,175,2.1,0.98525,2.4907,2,1.952,1,0.30593
4,3,56,176,2.1,2.208,2.0877,2,4.3126,0,0.52314
4,3,57,177,4.2,0.70492,3.0584,3,1.3433,0,0.47251
4,3,58,178,4.2,0.59741,3.5734,3,3.3207,1,0.52804
4,3,59,179,4.2,0.53183,3.4,1,3.281,1,1.8776
4,3,60,180,4.2,0.622,1.6293,2,3.1348,0,0.48807
4,3,61,181,4.2,0.32311,2.1042,2,2.2992,0,0.27881
4,3,62,182,4.2,0.64728,5.5756,3,1.9108,1,0.2017
4,3,63,183,2.1,0.68651,0.97432,2,1.9115,0,0.37167
4,3,64,184,2.1,0.47997,1.0304,2,2.4524,0,0.529
4,3,65,185,2.1,0.71386,2.1544,3,1.6019,0,0.57696
4,3,66,186,4.2,0.57386,4.4653,3,1.6964,1,0.29423
4,3,67,187,2.1,0.59329,1.6666,2,1.5777,0,0.23563
4,3,68,188,2.1,0.71354,1.4903,1,1.8432,0,0.11011
4,3,69,189,4.2,0.48845,3.2842,2,1.3803,0,0.11125
4,3,70,190,4.2,0.7693,2.8085,3,1.6366,1,0.29715
4,3,71,191,2.1,0.65953,2.0606,2,2.4856,0,0.18024
4,3,72,192,4.2,0.94835,5.1931,1,3.2282,0,0.2107
4,3,73,193,2.1,1.1161,1.1831,2,1.5763,0,0.5845
4,3,74,194,4.2,0.50168,2.8967,3,0.96642,0,0.26246
4,3,75,195,4.2,0.4307,3.1515,3,1.2813,0,0.98974
4,3,76,196,2.1,0.50006,1.1078,1,2.3158,0,0.19542
4,3,77,197,2.1,0.60627,1.7543,2,3.4806,0,0.25667
4,3,78,198,2.1,0.73229,2.6688,2,1.9234,0,0.17591
4,3,79,199,4.2,0.94673,3.0767,2,2.0885,0,0.2173
4,3,80,200,2.1,0.80128,2.6257,3,2.898,1,0.5746
4,3,81,201,4.2,0.69206,4.7268,2,1.3858,1,0.16183
4,3,82,202,2.1,0.6855,3.1675,1,2.2354,1,0.33913
4,3,83,203,2.1,0.57561,1.2746,1,2.3596,0,0.34619
4,3,84,204,2.1,0.59971,0.9388,3,2.1455,0,0.64056
4,3,85,205,4.2,0.56717,4.2573,2,2.329,1,0.23544
4,3,86,206,4.2,0.66798,3.0533,2,1.575,0,0.26895
4,3,87,207,4.2,0.58013,4.585,2,1.8559,0,0.77096
4,3,88,208,4.2,0.5751,3.1063,2,2.3871,0,0.82404
4,3,89,209,4.2,0.41199,3.774,3,1.7673,1,0.15946
4,3,90,210,2.1,0.44001,2.1374,3,2.7701,0,0.46266
5,3,1,121,2.1,1.3738,1.2983,2,1.5131,1,0.59972
5,3,2,122,2.1,1.4835,1.9721,2,0.72623,0,0.22345
5,3,3,123,4.2,0.91676,3.4046,2,0.33884,0,0.22585
5,3,4,124,2.1,1.1323,1.7549,2,0.46295,0,0.2017
5,3,5,125,4.2,0.73248,3.0848,1,0.39345,0,0.18995
5,3,6,126,4.2,0.46766,3.4543,3,1.9058,0,4.3183
5,3,7,127,4.2,0.55902,7.1682,1,0.85129,1,1.6226
5,3,8,128,2.1,2.8637,1.9014,3,2.5784,0,3.1785
5,3,9,129,4.2,0.98845,4.282,3,0.39371,0,0.44042
5,3,10,130,4.2,1.5515,3.718,3,2.0204,0,0.069667
5,3,11,131,4.2,0.82522,3.7414,3,0.60413,1,1.7052
5,3,12,132,2.1,0.79168,1.2528,1,0.91039,0,0.21402
5,3,13,133,2.1,1.5112,1.9021,3,0.24282,0,0.21512
5,3,14,134,2.1,0.92175,2.0659,3,0.27196,0,0.19552
5,3,15,135,2.1,2.3524,1.7641,3,0.95074,0,0.12585
5,3,16,136,4.2,0.45489,3.9313,2,1.0406,1,0.45885
5,3,17,137,2.1,0.77074,0.20968,1,1.1039,0,0.16822
5,3,18,138,2.1,1.1184,9.35,1,0.44627,1,0.53812
5,3,19,139,2.1,1.1054,2.1139,2,1.5343,0,0.4684
5,3,20,140,4.2,0.68925,4.5797,2,0.9902,1,0.30623
5,3,21,141,2.1,2.2977,2.0146,3,0.90402,0,0.46424
5,3,22,142,4.2,1.6854,3.9421,3,0.38759,1,0.39311
5,3,23,143,2.1,1.6191,3.2775,2,0.16894,1,0.19117
5,3,24,144,4.2,6.1336,1.0469,1,0.34413,0,0.26357
5,3,25,145,2.1,0.53018,1.7708,2,0.2707,0,0.16069
5,3,26,146,4.2,0.49091,4.1183,3,0.61333,0,0.23425
5,3,27,147,2.1,0.76479,1.6278,2,0.3172,0,0.2063
5,3,28,148,2.1,2.4678,2.2663,2,0.20016,1,0.31118
5,3,29,149,2.1,1.0625,3.1523,2,0.38355,1,0.26273
5,3,30,150,2.1,1.0689,2.0207,2,0.24468,1,0.37801
5,3,31,151,2.1,1.3174,2.1309,2,1.223,0,0.36165
5,3,32,152,2.1,0.73188,1.8272,3,0.95682,0,0.19395
5,3,33,153,2.1,0.48837,1.8598,3,1.2981,0,0.51369
5,3,34,154,4.2,0.84912,3.9404,3,1.171,0,3.1119
5,3,35,155,4.2,0.79146,3.1338,2,1.3267,0,0.93375
5,3,36,156,4.2,2.7344,4.1776,2,0.22262,0,0.85969
5,3,37,157,2.1,1.1272,1.8949,3,0.71726,0,1.5979
5,3,38,158,2.1,4.1789,1.6482,1,1.3852,0,1.5798
5,3,39,159,2.1,0.69589,1.9945,2,0.81197,0,0.80859
5,3,40,160,4.2,0.98359,3.3661,3,1.734,0,0.29047
5,3,41,161,2.1,1.5368,2.575,2,0.328,0,0.32138
5,3,42,162,4.2,0.88459,3.5899,3,0.87447,0,0.28309
5,3,43,163,2.1,4.3615,2.6707,2,0.33013,0,0.62686
5,3,44,164,2.1,1.4014,1.341,1,0.9463,0,0.11292
5,3,45,165,4.2,0.65726,3.5646,2,0.2111,0,0.26498
5,3,46,166,4.2,9.8724,3.0425,2,0.48637,1,0.52034
5,3,47,167,2.1,0.85058,1.6612,2,0.26992,0,0.27329
5,3,48,168,4.2,0.40733,3.1572,2,1.6849,1,0.66032
5,3,49,169,4.2,1.0471,3.4188,3,0.21552,1,0.14041
5,3,50,170,4.2,1.1108,3.6149,2,0.28276,0,0.3033
5,3,51,171,2.1,0.88907,4.1397,3,0.18515,1,0.11362
5,3,52,172,4.2,1.802,2.6051,3,0.27589,1,0.23907
5,3,53,173,4.2,0.75885,3.5185,3,0.37528,1,0.38216
5,3,54,174,4.2,0.32885,3.6354,2,0.59124,1,0.12415
5,3,55,175,4.2,2.5936,3.5631,3,0.26548,1,0.21138
5,3,56,176,4.2,1.901,3.772,3,0.30538,0,0.34637
5,3,57,177,2.1,0.75225,1.5443,3,0.21322,1,0.21077
5,3,58,178,4.2,0.33916,4.2447,2,0.63803,1,0.81718
5,3,59,179,4.2,1.4134,0.60121,1,0.41277,0,0.33041
5,3,60,180,2.1,1.768,2.1643,2,0.32641,0,0.22246
5,3,61,181,2.1,1.3184,2.3323,3,0.77553,1,0.79773
5,3,62,182,2.1,1.7238,1.985,3,0.24334,0,0.13587
5,3,63,183,2.1,1.669,2.0301,3,0.17304,1,0.21444
5,3,64,184,4.2,1.1838,3.6129,3,0.081656,0,0.091868
5,3,65,185,4.2,0.98552,3.7827,2,0.24445,1,0.49667
5,3,66,186,4.2,0.36008,4.161,3,0.18183,0,0.66056
5,3,67,187,4.2,0.48052,2.4917,1,0.22392,0,0.16574
5,3,68,188,4.2,1.1208,4.6088,2,0.49109,0,0.27729
5,3,69,189,4.2,1.147,4.9373,3,0.16524,1,0.16645
5,3,70,190,4.2,1.4872,3.439,3,0.13861,1,0.13938
5,3,71,191,2.1,2.0411,2.0092,2,0.17903,0,0.3786
5,3,72,192,4.2,2.318,3.114,2,0.2039,1,1.2983
5,3,73,193,2.1,2.5053,1.9249,3,0.37889,0,0.36153
5,3,74,194,2.1,1.089,2.209,2,1.4817,0,0.12143
5,3,75,195,4.2,0.83625,4.3281,2,1.1569,0,0.066318
5,3,76,196,2.1,1.1623,2.4324,3,0.15121,1,0.54394
5,3,77,197,2.1,0.71584,1.8205,1,0.23709,1,5.1863
5,3,78,198,4.2,6.8443,1.9836,2,0.9151,0,0.083446
5,3,79,199,2.1,0.48832,2.0259,2,0.21049,0,0.11339
5,3,80,200,2.1,0.47951,2.3308,2,0.15824,0,0.16606
5,3,81,201,4.2,1.4106,4.3019,2,0.40571,0,0.85788
5,3,82,202,2.1,0.91745,1.6932,2,0.18053,0,0.38725
5,3,83,203,4.2,0.24907,0.13473,1,0.91925,0,0.53394
5,3,84,204,2.1,0.29561,1.8748,2,0.4647,0,0.57941
5,3,85,205,4.2,0.37644,4.0316,2,0.5537,0,0.28098
5,3,86,206,2.1,0.85618,0.99521,2,0.061885,0,0.13794
5,3,87,207,4.2,0.24582,3.3705,2,0.64808,0,0.099395
5,3,88,208,2.1,0.37875,1.6659,2,0.10627,0,0.10872
5,3,89,209,4.2,0.36061,3.7196,2,0.13621,0,0.07286
5,3,90,210,4.2,1.3664,3.3949,2,0.15285,0,0.16925
6,3,1,121,4.2,1.2226,2.2133,3,1.6884,0,0.57983
6,3,2,122,4.2,0.89851,3.1965,3,1.0896,1,1.2908
6,3,3,123,4.2,0.93309,3.0408,3,1.2639,1,0.6066
6,3,4,124,4.2,0.71886,2.8746,3,1.2203,0,1.4008
6,3,5,125,2.1,1.1273,0.90113,2,2.0302,0,0.49654
6,3,6,126,2.1,1.0715,1.9649,3,1.3596,0,0.90042
6,3,7,127,2.1,0.84443,1.8259,3,1.337,1,0.88245
6,3,8,128,2.1,0.99034,1.911,3,1.237,1,0.30996
6,3,9,129,4.2,0.83788,2.4716,2,1.4773,1,0.4615
6,3,10,130,2.1,1.0512,1.7031,2,3.8849,0,0.60827
6,3,11,131,2.1,1.0505,2.4111,2,1.4953,1,3.5227
6,3,12,132,4.2,1.1168,4.3225,2,1.9444,0,1.7999
6,3,13,133,4.2,0.72699,3.7155,3,2.1929,1,0.79742
6,3,14,134,2.1,1.9287,1.6885,3,2.5029,0,0.51892
6,3,15,135,4.2,1.1479,3.1997,3,1.4481,1,0.59572
6,3,16,136,2.1,0.95846,1.6872,3,1.7938,0,0.51685
6,3,17,137,4.2,0.94974,3.2881,3,1.4843,1,1.0827
6,3,18,138,4.2,0.88625,2.3911,3,1.7846,1,0.90162
6,3,19,139,4.2,0.92311,2.1019,3,1.2271,1,0.82229
6,3,20,140,4.2,0.85817,3.2411,3,2.277,1,1.7192
6,3,21,141,4.2,1.1091,3.3417,3,1.7132,0,0.82484
6,3,22,142,2.1,0.94187,2.2837,3,1.7991,0,0.5957
6,3,23,143,4.2,0.62887,3.4141,3,1.4373,0,2.1894
6,3,24,144,4.2,0.76426,2.9875,3,1.4973,1,1.7983
6,3,25,145,4.2,0.88923,3.5088,3,1.4548,0,1.8634
6,3,26,146,2.1,1.0868,1.942,3,2.1346,0,2.1489
6,3,27,147,4.2,0.76722,2.5124,3,1.1592,1,0.5065
6,3,28,148,2.1,1.0789,1.2184,3,1.7247,1,1.3366
6,3,29,149,2.1,0.80995,1.6555,3,1.3574,1,0.46931
6,3,30,150,4.2,0.67139,2.7311,3,2.1448,1,1.5512
6,3,31,151,2.1,1.3722,2.1896,3,3.5602,0,0.92787
6,3,32,152,2.1,0.59403,1.9049,3,1.2536,1,0.53446
6,3,33,153,2.1,0.69361,1.9594,3,1.0114,0,0.66628
6,3,34,154,4.2,0.93713,2.7515,3,0.95452,0,0.70494
6,3,35,155,4.2,0.74876,2.8715,3,1.2052,1,0.63737
6,3,36,156,4.2,0.59699,2.493,3,1.5834,0,0.46236
6,3,37,157,2.1,0.88622,1.6374,3,1.682,0,0.98952
6,3,38,158,2.1,0.84323,2.1047,3,1.2871,1,0.74882
6,3,39,159,4.2,0.72039,2.7639,3,1.9239,0,0.65939
6,3,40,160,2.1,1.2209,1.2553,3,1.357,1,0.59342
6,3,41,161,2.1,0.99818,1.3232,3,1.6951,0,1.1929
6,3,42,162,4.2,0.76048,2.6347,3,1.8683,0,1.6665
6,3,43,163,2.1,0.96222,1.7371,3,1.6463,0,0.44181
6,3,44,164,4.2,0.63042,2.6168,3,0.99911,1,0.96997
6,3,45,165,4.2,0.66608,2.8039,3,1.4076,0,1.2362
6,3,46,166,4.2,0.62749,3.537,3,1.5399,1,1.3913
6,3,47,167,4.2,1.048,3.6391,3,1.7454,0,1.5082
6,3,48,168,4.2,0.7281,2.9516,3,1.6743,1,1.1112
6,3,49,169,4.2,1.1612,2.0152,3,2.0465,0,0.60862
6,3,50,170,4.2,1.7727,3.4944,3,1.4237,1,0.38093
6,3,51,171,4.2,1.0463,2.153,3,1.8929,0,0.48228
6,3,52,172,2.1,0.83108,1.1205,3,1.7848,1,0.92315
6,3,53,173,4.2,0.78566,3.0204,3,1.1592,0,1.3062
6,3,54,174,2.1,0.66337,1.6136,3,1.0894,0,1.1569
6,3,55,175,2.1,0.84011,1.2806,3,1.0012,1,0.59925
6,3,56,176,4.2,0.64338,2.6578,3,0.92888,1,0.83074
6,3,57,177,2.1,0.75075,1.4444,3,1.4082,1,0.61751
6,3,58,178,2.1,1.0245,2.0926,3,1.8873,1,1.4557
6,3,59,179,2.1,0.9303,1.6931,3,1.5857,0,0.38538
6,3,60,180,4.2,1.2076,3.3399,3,2.2754,1,1.0878
6,3,61,181,2.1,1.0286,1.7811,3,2.552,0,1.0466
6,3,62,182,2.1,0.91156,2.4103,3,1.8317,0,1.3486
6,3,63,183,2.1,0.90899,2.2615,3,1.879,1,0.40466
6,3,64,184,4.2,0.9055,3.2481,3,1.8223,0,2.1667
6,3,65,185,2.1,0.94924,1.8246,3,1.3014,1,0.84793
6,3,66,186,4.2,0.9392,3.4521,3,1.0205,1,0.81704
6,3,67,187,4.2,0.96093,3.2534,3,0.93348,0,0.67801
6,3,68,188,2.1,1.2644,1.523,3,1.0999,0,0.64318
6,3,69,189,2.1,0.97677,1.9134,3,2.2035,1,0.81242
6,3,70,190,2.1,1.2614,2.3082,3,0.68267,0,0.47569
6,3,71,191,2.1,0.9432,2.2071,3,0.91684,1,1.2074
6,3,72,192,2.1,1.0877,2.3121,3,0.87829,0,0.46486
6,3,73,193,4.2,0.89287,3.4556,3,0.54012,0,0.41579
6,3,74,194,2.1,1.1862,2.0413,3,0.52607,1,0.4634
6,3,75,195,2.1,1.1227,2.5283,3,0.44865,1,0.63379
6,3,76,196,2.1,0.93079,1.84,3,1.2443,0,0.77729
6,3,77,197,2.1,0.8925,2.3186,2,2.4536,0,2.8143
6,3,78,198,2.1,0.89986,2.9607,3,2.2923,0,1.4699
6,3,79,199,2.1,0.9094,2.0038,3,0.46513,1,0.3513
6,3,80,200,4.2,0.99679,2.8967,3,0.55076,0,0.57909
6,3,81,201,2.1,1.5197,2.197,3,0.50246,0,1.3906
6,3,82,202,2.1,0.94516,2.1633,3,0.49697,1,0.37215
6,3,83,203,4.2,0.93199,2.8817,3,0.4727,1,0.33742
6,3,84,204,2.1,1.0948,2.2307,3,0.47974,0,2.521
6,3,85,205,4.2,1.0741,2.9697,3,0.60741,0,0.70831
6,3,86,206,4.2,0.96772,3.5817,3,0.47135,0,1.5051
6,3,87,207,4.2,1.146,3.5815,3,0.48195,1,1.0386
6,3,88,208,4.2,1.0919,3.4646,3,0.37056,1,0.39109
6,3,89,209,4.2,1.027,4.0632,3,0.55771,1,1.4181
6,3,90,210,2.1,1.0387,2.2132,3,0.72016,0,1.0315
7,3,1,121,2.1,0.4181,2.7627,1,1.079,0,0.36951
7,3,2,122,2.1,0.41675,3.3118,2,1.0537,0,0.36731
7,3,3,123,2.1,0.48608,3.1127,2,1.224,0,0.50451
7,3,4,124,2.1,0.59852,3.0623,2,1.145,0,0.9263
7,3,5,125,4.2,0.35607,2.9922,2,3.9878,0,0.29155
7,3,6,126,4.2,1.7614,3.3078,2,1.6915,1,0.68408
7,3,7,127,2.1,0.4973,2.9597,2,0.69317,0,0.40735
7,3,8,128,2.1,0.9732,3.2499,2,0.95659,1,0.34749
7,3,9,129,2.1,0.5564,1.27,2,0.90634,0,0.31289
7,3,10,130,2.1,1.7004,4.2482,2,1.6623,1,0.67528
7,3,11,131,2.1,1.0273,4.322,2,1.2031,1,0.48912
7,3,12,132,4.2,0.40906,3.4669,2,1.5722,1,0.39976
7,3,13,133,4.2,1.2356,3.5373,2,1.0908,0,1.1908
7,3,14,134,2.1,0.94269,3.6586,2,1.3417,0,1.1578
7,3,15,135,4.2,0.55236,3.1112,2,1.8642,0,0.72329
7,3,16,136,4.2,0.44923,2.703,2,2.2291,0,0.94472
7,3,17,137,2.1,0.52019,1.7961,2,1.0198,0,1.7733
7,3,18,138,2.1,0.68923,2.5515,2,0.79832,1,0.33913
7,3,19,139,4.2,0.44805,3.6703,2,0.79688,1,0.58535
7,3,20,140,4.2,0.84355,2.7469,1,1.2034,0,0.52373
7,3,21,141,4.2,0.49577,3.0992,2,1.1926,1,0.58592
7,3,22,142,4.2,1.0622,4.1111,3,1.4663,0,0.57525
7,3,23,143,4.2,0.35956,3.569,2,1.0672,1,0.43021
7,3,24,144,2.1,0.62156,3.9575,2,3.0394,1,1.5886
7,3,25,145,2.1,0.84458,0.92537,1,1.5595,0,1.1909
7,3,26,146,2.1,0.72553,1.4977,2,1.0005,0,0.71229
7,3,27,147,2.1,0.43855,1.6743,2,2.2364,1,1.25
7,3,28,148,4.2,0.39207,2.8706,2,1.3747,1,0.62791
7,3,29,149,2.1,1.2016,2.3218,2,1.1401,1,0.58338
7,3,30,150,4.2,0.44302,3.8726,2,2.2392,1,0.56822
7,3,31,151,4.2,0.45069,2.4811,1,1.0986,0,0.86727
7,3,32,152,4.2,1.9396,2.6278,2,1.0549,0,0.3572
7,3,33,153,2.1,0.95934,1.5985,2,0.78592,1,0.60276
7,3,34,154,4.2,0.53143,2.6917,2,0.81575,1,0.689
7,3,35,155,4.2,0.53797,2.8211,2,1.4424,0,0.70733
7,3,36,156,2.1,3.6581,2.4884,1,1.0172,0,0.59901
7,3,37,157,2.1,0.81049,1.9599,2,1.1362,0,1.0399
7,3,38,158,2.1,0.55324,3.0787,2,1.8767,0,0.65158
7,3,39,159,2.1,0.53275,2.7814,2,2.7904,0,0.73707
7,3,40,160,4.2,0.41676,3.638,2,1.3048,1,0.6145
7,3,41,161,2.1,0.66766,1.275,2,0.97811,0,0.75734
7,3,42,162,2.1,0.54921,3.4786,2,2.2019,0,0.48508
7,3,43,163,4.2,1.1752,3.1501,2,1.2448,0,0.31825
7,3,44,164,4.2,0.41814,3.3372,2,1.2142,1,0.41622
7,3,45,165,2.1,0.73178,4.1762,1,1.949,0,0.29122
7,3,46,166,4.2,0.59555,3.1094,1,1.0857,1,0.99527
7,3,47,167,4.2,0.4446,3.1665,2,0.71576,1,0.55381
7,3,48,168,2.1,1.146,3.0076,2,1.1975,0,0.39343
7,3,49,169,4.2,2.4685,4.0444,2,5.3601,0,5.7381
7,3,50,170,2.1,0.92567,1.4749,2,1.1787,0,0.53228
7,3,51,171,4.2,0.59567,3.1446,2,1.3682,0,0.91439
7,3,52,172,2.1,0.59366,3.8626,2,1.4248,0,0.40323
7,3,53,173,2.1,0.43205,2.0726,2,1.2429,1,0.37255
7,3,54,174,2.1,1.5493,1.6593,2,2.1935,1,2.5515
7,3,55,175,4.2,0.85585,2.6971,2,1.3503,1,0.10385
7,3,56,176,4.2,1.1804,2.6481,3,1.8789,0,0.58715
7,3,57,177,4.2,0.49634,3.0994,2,0.90107,0,0.30844
7,3,58,178,2.1,1.0855,2.6818,2,0.81667,1,0.73525
7,3,59,179,2.1,0.74482,2.0065,2,1.5475,1,0.86436
7,3,60,180,2.1,0.78483,1.5803,2,0.80798,0,0.33672
7,3,61,181,4.2,0.46324,3.5625,2,1.0192,1,1.7384
7,3,62,182,4.2,0.39602,2.8629,2,0.87666,0,0.97025
7,3,63,183,4.2,0.43941,3.8349,2,1.5754,0,0.30396
7,3,64,184,2.1,0.43171,2.9842,2,1.2576,0,0.28058
7,3,65,185,2.1,0.81069,2.7604,2,4.158,0,1.5883
7,3,66,186,4.2,0.98847,3.0793,2,1.0324,1,0.1482
7,3,67,187,2.1,0.43959,1.9566,1,12.719,0,0.46559
7,3,68,188,2.1,0.39809,1.9483,2,0.89764,1,0.48465
7,3,69,189,4.2,0.36813,4.5281,2,3.8519,1,0.68753
7,3,70,190,4.2,0.47972,4.1235,2,1.2039,1,0.29933
7,3,71,191,4.2,1.0339,5.1557,2,1.5723,0,0.82682
7,3,72,192,4.2,0.32082,3.2715,1,0.60948,0,0.30557
7,3,73,193,4.2,0.44515,3.6612,2,2.0763,0,0.35803
7,3,74,194,2.1,0.71412,4.2146,2,2.1339,1,0.25823
7,3,75,195,2.1,0.85333,3.6404,2,0.98098,1,0.49502
7,3,76,196,4.2,0.47128,2.3273,2,2.5856,0,0.88811
7,3,77,197,2.1,0.54042,1.079,1,0.77475,0,0.29222
7,3,78,198,4.2,0.34381,2.4007,1,1.7098,0,0.60633
7,3,79,199,4.2,0.48836,3.1817,2,0.94466,1,0.58804
7,3,80,200,4.2,0.49817,2.9504,2,4.5432,0,0.71057
7,3,81,201,4.2,1.1278,2.521,2,1.387,1,1.2325
7,3,82,202,4.2,0.49575,3.1109,2,1.6279,1,0.35994
7,3,83,203,2.1,0.62707,5.4702,1,1.5848,1,0.36293
7,3,84,204,4.2,0.39336,4.6271,2,0.85792,1,0.17931
7,3,85,205,2.1,0.55526,3.0461,2,1.1235,0,0.26828
7,3,86,206,2.1,0.68494,1.1977,2,1.2596,0,0.30369
7,3,87,207,2.1,0.50345,1.4584,2,0.98838,0,0.46952
7,3,88,208,4.2,0.65481,3.619,3,1.5062,0,0.5471
7,3,89,209,4.2,0.95934,4.0182,2,0.70408,0,1.0315
7,3,90,210,2.1,0.35671,1.5753,2,0.8534,0,0.37756
8,3,1,121,2.1,0.77657,1.644,2,0.78873,1,0.84064
8,3,2,122,4.2,0.35953,3.6812,2,0.71883,1,0.52439
8,3,3,123,2.1,0.55337,2.0775,2,0.80971,1,0.60906
8,3,4,124,2.1,0.48314,1.9961,3,0.85061,0,0.53246
8,3,5,125,2.1,0.28356,2.1422,2,0.67193,0,0.51586
8,3,6,126,4.2,0.30495,4.274,2,1.249,1,0.27025
8,3,7,127,2.1,0.30622,2.3168,2,0.47233,1,0.48289
8,3,8,128,4.2,0.42035,4.34,1,0.65172,1,0.433
8,3,9,129,4.2,0.28871,3.9368,2,0.70669,1,0.6283
8,3,10,130,4.2,0.31784,2.3226,1,2.2672,0,0.51693
8,3,11,131,4.2,0.53626,3.4838,2,1.2479,1,0.87938
8,3,12,132,2.1,0.57781,1.8158,2,0.80892,1,0.93409
8,3,13,133,4.2,1.0997,4.3108,2,1.0053,1,0.46915
8,3,14,134,2.1,0.66538,1.9264,2,0.85301,1,0.6368
8,3,15,135,4.2,0.39262,4.6585,2,0.71014,1,0.50946
8,3,16,136,2.1,0.6365,2.6962,2,0.66299,1,0.51722
8,3,17,137,2.1,0.32973,2.7748,2,0.70244,1,0.49055
8,3,18,138,2.1,0.32078,2.5404,2,0.57827,0,0.89945
8,3,19,139,4.2,0.28648,4.4067,1,1.4059,1,1.166
8,3,20,140,4.2,0.35472,3.8907,2,0.67646,1,0.53186
8,3,21,141,2.1,0.60864,1.8902,2,0.84043,1,0.53897
8,3,22,142,4.2,0.40897,4.1639,2,0.78443,1,0.55648
8,3,23,143,4.2,0.39859,4.492,2,0.69824,1,0.46247
8,3,24,144,2.1,0.65519,1.8543,2,0.58942,1,0.41583
8,3,25,145,4.2,0.40872,4.2648,2,0.79607,1,0.70804
8,3,26,146,2.1,0.75815,1.676,2,0.68538,1,0.45567
8,3,27,147,4.2,0.61815,3.4817,2,0.6744,1,0.64136
8,3,28,148,2.1,0.46066,3.075,2,0.96169,1,0.41952
8,3,29,149,2.1,0.46302,2.1663,2,0.79771,0,1.1268
8,3,30,150,2.1,0.52256,2.2043,2,1.1393,1,0.44692
8,3,31,151,4.2,0.5384,3.7895,2,0.76593,1,0.52041
8,3,32,152,2.1,0.53129,2.3645,2,0.86357,1,0.51772
8,3,33,153,4.2,0.36123,4.3471,2,0.67055,1,0.43488
8,3,34,154,4.2,0.56978,4.3156,2,0.64931,1,0.5204
8,3,35,155,2.1,0.7195,2.0211,2,0.82605,0,0.55167
8,3,36,156,4.2,0.31366,2.9721,2,0.98115,1,0.46299
8,3,37,157,2.1,0.60423,2.022,2,0.74779,0,0.56445
8,3,38,158,4.2,0.342,3.95,2,0.76501,1,0.41811
8,3,39,159,4.2,0.45042,5.6298,1,0.69879,1,0.46468
8,3,40,160,2.1,1.806,2.1994,2,1.0223,1,0.50399
8,3,41,161,4.2,0.40462,3.9922,2,0.75638,1,0.42552
8,3,42,162,2.1,0.47891,2.1092,2,0.61601,1,0.54341
8,3,43,163,4.2,0.33804,3.5425,2,0.86945,1,0.44522
8,3,44,164,4.2,0.38071,4.0629,2,0.71553,1,0.8577
8,3,45,165,2.1,0.51098,1.9955,2,0.79423,1,0.67795
8,3,46,166,2.1,0.34059,1.5753,2,0.82132,0,0.54686
8,3,47,167,4.2,0.35022,3.7072,2,0.78871,0,0.4938
8,3,48,168,4.2,0.22452,5.2552,1,0.88995,1,0.48255
8,3,49,169,4.2,0.32711,1.5005,1,1.8469,0,0.89187
8,3,50,170,2.1,0.58061,1.8622,1,1.385,0,1.8945
8,3,51,171,4.2,0.34057,4.7267,2,0.46246,1,0.42833
8,3,52,172,4.2,0.3781,3.6393,2,0.665,1,0.44061
8,3,53,173,4.2,0.33927,4.4213,2,0.62667,1,0.44195
8,3,54,174,4.2,0.78943,4.5217,2,0.63808,1,0.85146
8,3,55,175,4.2,0.31902,3.4719,2,0.72087,1,0.48012
8,3,56,176,2.1,0.55365,1.7066,2,0.64863,1,0.41871
8,3,57,177,2.1,0.43725,2.068,2,0.61938,1,0.41114
8,3,58,178,4.2,0.32281,3.7009,2,0.61413,1,0.40793
8,3,59,179,4.2,0.61965,3.4834,2,0.61848,0,0.51298
8,3,60,180,4.2,0.26763,2.5711,2,0.68875,1,0.40359
8,3,61,181,4.2,0.35873,3.522,2,0.8344,0,0.48754
8,3,62,182,4.2,0.32516,3.6469,2,0.62839,0,0.49322
8,3,63,183,2.1,0.41452,2.14,2,0.6246,1,0.38257
8,3,64,184,2.1,0.38619,2.0885,2,0.61158,1,0.43832
8,3,65,185,4.2,0.42947,4.3822,2,0.7285,0,0.62864
8,3,66,186,4.2,0.39077,7.3694,1,0.71175,1,0.5504
8,3,67,187,2.1,0.48758,2.1014,2,0.76693,0,0.48659
8,3,68,188,2.1,0.64286,2.4431,2,0.75129,1,0.60204
8,3,69,189,2.1,0.59738,2.201,2,0.7089,1,1.0466
8,3,70,190,2.1,0.92053,2.8422,2,0.95142,1,0.49893
8,3,71,191,2.1,0.28082,2.2405,2,0.62574,1,0.39556
8,3,72,192,4.2,0.35034,4.5613,2,0.89346,1,0.72071
8,3,73,193,4.2,0.26784,3.3256,2,0.76953,0,0.72641
8,3,74,194,4.2,0.25386,3.9011,2,0.72154,0,0.42384
8,3,75,195,4.2,0.36293,4.788,2,0.7614,0,0.51037
8,3,76,196,2.1,0.57683,2.1633,3,0.71019,1,1.3645
8,3,77,197,2.1,0.39037,2.2949,2,0.71886,1,0.45567
8,3,78,198,2.1,0.58162,2.2526,2,2.4092,1,0.34467
8,3,79,199,2.1,0.45911,4.2537,1,3.3511,1,0.90188
8,3,80,200,2.1,0.34237,2.3988,2,0.61625,1,0.39784
8,3,81,201,2.1,0.34236,2.297,2,0.71723,1,0.49875
8,3,82,202,2.1,0.32656,2.4007,2,0.73032,1,0.40518
8,3,83,203,2.1,0.44064,2.1051,2,0.83699,0,0.62585
8,3,84,204,4.2,1.2506,4.9874,2,0.68466,0,0.61463
8,3,85,205,2.1,0.4441,1.9508,2,0.70956,0,0.50624
8,3,86,206,4.2,0.27916,3.2916,2,0.65655,1,0.47165
8,3,87,207,2.1,1.8972,2.6794,3,1.0239,0,0.52819
8,3,88,208,4.2,0.31006,5.2693,2,0.76324,1,0.55158
8,3,89,209,2.1,0.49525,1.6705,2,0.73607,0,0.53442
8,3,90,210,2.1,0.495,2.4564,2,0.7479,0,0.50774
9,3,1,121,2.1,0.64565,1.8276,2,1.7547,1,0.86064
9,3,2,122,4.2,0.66437,4.4448,2,1.9057,1,0.76013
9,3,3,123,4.2,0.43428,4.5847,2,1.7311,1,1.0339
9,3,4,124,4.2,0.57017,4.2829,2,4.4977,1,1.4468
9,3,5,125,4.2,0.90416,3.5055,2,3.8491,0,0.97713
9,3,6,126,2.1,0.69384,1.9834,3,3.1837,0,1.409
9,3,7,127,4.2,0.805,5.2165,2,3.394,1,1.7503
9,3,8,128,4.2,1.514,5.2798,1,1.8479,1,1.6473
9,3,9,129,2.1,2.1805,2.9486,2,3.2471,0,1.1017
9,3,10,130,2.1,0.79901,2.7016,2,2.3961,0,2.5766
9,3,11,131,2.1,0.90862,1.294,2,2.2681,0,1.125
9,3,12,132,4.2,0.74998,4.9874,2,2.1938,1,1.169
9,3,13,133,4.2,0.65264,4.4397,2,2.2603,0,1.4937
9,3,14,134,4.2,0.66759,3.5155,2,1.8105,0,1.113
9,3,15,135,4.2,0.4883,5.4543,2,1.709,0,0.46001
9,3,16,136,4.2,0.85952,4.1416,1,2.0935,1,1.2138
9,3,17,137,4.2,1.2674,5.2337,2,1.8189,0,1.7352
9,3,18,138,2.1,1.0446,2.6017,2,1.8009,0,2.3975
9,3,19,139,4.2,0.49137,3.0278,2,1.582,1,1.3163
9,3,20,140,4.2,0.71619,6.8543,2,2.4698,1,1.9376
9,3,21,141,4.2,1.0187,6.4055,2,3.1705,0,1.4966
9,3,22,142,2.1,0.64443,2.0966,3,2.2693,0,0.72129
9,3,23,143,4.2,0.67876,3.3462,2,1.7409,0,0.96413
9,3,24,144,2.1,0.67328,2.35,2,1.4848,0,0.47509
9,3,25,145,4.2,1.2113,4.1087,3,3.7716,0,0.57224
9,3,26,146,4.2,0.66007,4.389,2,2.249,0,1.9904
9,3,27,147,2.1,0.57343,2.5195,2,1.418,1,1.9604
9,3,28,148,2.1,0.76201,1.972,2,1.5803,1,0.63462
9,3,29,149,2.1,0.57624,2.3754,3,2.7427,0,1.2779
9,3,30,150,2.1,0.69424,1.8828,2,2.2947,0,1.3262
9,3,31,151,2.1,0.59063,2.3741,3,1.4243,1,0.71775
9,3,32,152,2.1,0.42574,2.2399,2,1.2782,1,0.4863
9,3,33,153,4.2,0.62016,3.5741,2,1.2956,0,1.4431
9,3,34,154,2.1,0.53861,2.2487,2,1.3815,0,0.65257
9,3,35,155,2.1,0.57688,1.7358,2,1.6457,1,1.0028
9,3,36,156,2.1,0.3933,2.2532,2,1.4763,1,0.40497
9,3,37,157,2.1,0.48088,1.5546,3,3.6507,1,0.5286
9,3,38,158,2.1,0.5399,2.5537,2,2.2959,0,1.7004
9,3,39,159,2.1,0.76725,2.5907,2,1.209,1,0.59683
9,3,40,160,2.1,0.67584,2.9607,1,2.7307,1,0.75399
9,3,41,161,4.2,0.60645,4.0377,2,1.8769,1,0.89993
9,3,42,162,2.1,0.62949,2.2219,2,1.5676,1,0.80143
9,3,43,163,4.2,0.74404,5.583,1,2.6828,1,0.62251
9,3,44,164,4.2,0.77847,3.4914,2,1.6796,0,1.037
9,3,45,165,4.2,0.6009,4.5054,2,3.5295,1,1.1666
9,3,46,166,4.2,0.70657,4.2848,2,1.778,1,1.3839
9,3,47,167,2.1,0.5664,1.9497,2,1.3278,1,0.63161
9,3,48,168,4.2,0.59145,4.1305,2,1.9873,1,0.56616
9,3,49,169,2.1,0.59182,2.0938,3,2.6314,1,0.57411
9,3,50,170,2.1,0.51488,1.9367,3,1.6691,1,0.71227
9,3,51,171,2.1,0.69248,2.612,2,1.4153,1,0.99073
9,3,52,172,2.1,0.65557,2.2486,2,1.3929,0,0.75308
9,3,53,173,4.2,0.67383,5.1078,2,2.564,1,1.1361
9,3,54,174,4.2,0.67718,4.9412,2,1.5288,1,0.54252
9,3,55,175,4.2,0.6899,5.6915,1,1.5276,1,0.66301
9,3,56,176,4.2,0.76254,6.068,2,2.8639,1,1.1243
9,3,57,177,4.2,0.59829,2.8035,2,1.914,1,0.39681
9,3,58,178,2.1,0.54186,2.6109,2,2.4726,1,1.0965
9,3,59,179,2.1,0.61699,2.0187,2,2.2514,1,0.57413
9,3,60,180,4.2,0.60854,3.9157,2,2.4279,0,1.6987
9,3,61,181,2.1,0.53721,1.7418,3,2.3935,0,0.999
9,3,62,182,2.1,0.36369,1.9821,2,1.2243,1,0.84273
9,3,63,183,4.2,0.75311,3.246,2,2.1813,0,0.64373
9,3,64,184,4.2,0.73301,3.8729,2,1.6208,1,0.62289
9,3,65,185,2.1,0.67585,2.3646,2,1.7629,0,0.60957
9,3,66,186,2.1,0.64896,1.8808,3,2.1701,1,0.56443
9,3,67,187,4.2,0.53948,4.7131,2,1.9509,1,0.87845
9,3,68,188,2.1,0.87206,2.8776,2,1.7856,1,0.75661
9,3,69,189,4.2,0.54743,3.4891,2,1.8116,1,0.86643
9,3,70,190,4.2,0.65715,4.3759,2,2.24,0,0.70325
9,3,71,191,2.1,0.60741,2.2382,2,2.5132,1,1.0128
9,3,72,192,2.1,0.55578,1.7767,2,1.7548,0,1.9174
9,3,73,193,2.1,0.69063,2.6104,3,2.663,1,0.92271
9,3,74,194,4.2,0.62554,3.0281,2,3.3486,0,2.498
9,3,75,195,4.2,0.62224,3.4073,2,1.9037,1,1.3657
9,3,76,196,2.1,0.55189,2.5713,2,1.5891,0,1.0083
9,3,77,197,2.1,0.85084,2.603,3,2.3401,0,1.8626
9,3,78,198,2.1,0.60895,2.7015,2,3.7565,1,1.5432
9,3,79,199,4.2,0.5939,4.0985,1,3.5291,0,1.4137
9,3,80,200,2.1,0.58465,2.008,3,2.4836,0,3.3509
9,3,81,201,4.2,0.49848,3.5911,2,1.9045,1,0.81432
9,3,82,202,2.1,0.51995,2.5391,2,2.006,1,0.64755
9,3,83,203,4.2,0.66408,4.0003,1,2.9131,1,2.114
9,3,84,204,4.2,1.4191,4.3688,2,1.575,1,0.44863
9,3,85,205,2.1,1.3469,2.4897,2,2.2218,0,1.7258
9,3,86,206,2.1,0.64164,2.0493,3,2.552,0,2.7003
9,3,87,207,4.2,0.61611,3.6034,2,1.6858,1,0.65564
9,3,88,208,4.2,0.6624,4.8207,2,1.739,1,0.58024
9,3,89,209,4.2,1.4351,5.381,1,1.8719,1,0.73615
9,3,90,210,2.1,0.92624,2.0947,3,3.5098,1,1.3431
10,3,1,121,2.1,0.46772,2.2584,2,2.3098,0,0.48593
10,3,2,122,2.1,0.52649,3.2905,2,1.2191,1,0.56994
10,3,3,123,2.1,0.40685,2.6761,3,1.2608,1,0.59002
10,3,4,124,2.1,0.51836,2.7459,3,1.0497,1,1.955
10,3,5,125,4.2,0.47303,4.4893,2,1.5004,0,0.55471
10,3,6,126,4.2,0.86399,4.3071,3,1.2272,1,0.52656
10,3,7,127,2.1,0.55892,2.2911,3,1.2473,1,0.50183
10,3,8,128,4.2,0.41863,3.6093,1,1.1702,0,0.59509
10,3,9,129,4.2,0.22744,4.4569,2,1.2258,1,1.1519
10,3,10,130,2.1,0.36165,2.0311,2,1.013,0,0.51419
10,3,11,131,2.1,0.48328,0.82006,1,2.1466,0,0.53983
10,3,12,132,4.2,0.62858,3.2312,3,1.7014,0,1.9542
10,3,13,133,4.2,0.66949,4.8229,2,1.1365,1,0.68378
10,3,14,134,4.2,0.46652,4.145,2,3.8833,0,1.1002
10,3,15,135,2.1,0.51314,2.4453,2,1.2125,0,2.4306
10,3,16,136,2.1,0.45735,2.3148,2,1.3116,1,0.85331
10,3,17,137,2.1,0.70935,3.4791,3,2.5222,1,2.0696
10,3,18,138,2.1,0.52297,3.0373,2,1.4281,0,0.51515
10,3,19,139,4.2,0.47996,4.2205,3,1.5876,0,1.8957
10,3,20,140,4.2,0.22956,4.7332,2,1.2609,0,1.3664
10,3,21,141,4.2,0.32652,4.1426,2,1.1178,0,2.9809
10,3,22,142,4.2,1.205,4.9595,2,1.6155,0,1.0273
10,3,23,143,4.2,0.39101,5.5269,2,2.0151,1,0.98867
10,3,24,144,2.1,1.3315,3.0573,1,1.1688,0,1.3574
10,3,25,145,2.1,0.56687,2.1939,2,0.85093,0,2.1188
10,3,26,146,4.2,0.54957,4.6811,2,1.7213,0,0.69545
10,3,27,147,4.2,0.45851,4.4897,3,1.2146,1,0.61462
10,3,28,148,4.2,0.21945,4.5982,2,1.1469,1,0.50079
10,3,29,149,2.1,0.51931,3.0594,1,1.1343,0,1.1932
10,3,30,150,4.2,0.3454,4.9182,2,1.5504,1,0.70298
10,3,31,151,4.2,0.38344,4.032,2,0.88733,1,0.58386
10,3,32,152,2.1,0.64419,2.868,2,1.0256,0,0.63914
10,3,33,153,2.1,0.58343,3.0076,2,1.057,1,0.49886
10,3,34,154,4.2,0.524,4.9635,3,1.2074,1,0.64957
10,3,35,155,4.2,0.49884,5.1067,3,1.8743,0,2.1982
10,3,36,156,4.2,0.60462,4.6488,2,1.3595,0,1.2643
10,3,37,157,2.1,0.55111,2.5944,1,1.425,0,0.57428
10,3,38,158,2.1,0.33947,2.5268,3,1.1983,1,1.8777
10,3,39,159,2.1,0.29805,2.1058,2,1.27,0,0.53352
10,3,40,160,4.2,0.29383,4.6422,2,1.0032,1,0.43366
10,3,41,161,4.2,0.6841,4.9451,3,1.2552,0,0.97187
10,3,42,162,4.2,1.9826,4.4565,3,1.5267,1,1.3627
10,3,43,163,2.1,0.32086,2.9501,2,2.4987,0,0.86707
10,3,44,164,4.2,0.59546,4.3315,2,0.697,1,0.50407
10,3,45,165,2.1,0.64718,2.357,2,1.0217,0,1.3969
10,3,46,166,4.2,0.27932,5.3838,2,1.6583,1,0.71166
10,3,47,167,2.1,0.37941,2.5447,2,0.97401,0,0.42632
10,3,48,168,4.2,0.26076,5.1304,2,1.0327,1,0.57891
10,3,49,169,2.1,0.47715,2.4184,2,1.127,0,0.57734
10,3,50,170,4.2,0.49927,4.4072,2,1.177,0,0.52657
10,3,51,171,2.1,0.7229,3.2997,2,1.3274,1,0.58848
10,3,52,172,2.1,0.47222,4.4997,2,1.0245,1,0.4634
10,3,53,173,2.1,0.43444,2.6835,2,1.2368,0,0.34641
10,3,54,174,4.2,0.71929,4.0463,3,1.5593,0,1.9249
10,3,55,175,4.2,0.60111,4.5446,2,1.2055,1,1.3108
10,3,56,176,2.1,0.38704,3.6106,2,1.2588,0,0.66309
10,3,57,177,2.1,0.36146,3.9697,2,0.94914,1,0.55454
10,3,58,178,2.1,0.44262,2.4041,3,1.043,1,0.47579
10,3,59,179,4.2,0.49375,4.7918,2,1.5525,0,1.4689
10,3,60,180,2.1,0.43463,3.2209,2,1.1655,1,0.47871
10,3,61,181,4.2,0.35876,4.7148,1,1.1357,0,0.6571
10,3,62,182,4.2,0.37835,4.3078,2,1.4407,0,0.5352
10,3,63,183,2.1,3.7086,2.9312,1,1.1014,0,0.41874
10,3,64,184,2.1,0.59471,2.5556,3,2.1937,0,0.15006
10,3,65,185,4.2,0.53515,4.171,3,3.0499,1,0.61512
10,3,66,186,4.2,2.0233,4.7333,2,1.3866,0,0.857
10,3,67,187,4.2,0.51374,4.8083,3,1.3907,0,0.6237
10,3,68,188,4.2,0.50343,4.3599,3,2.5185,0,2.727
10,3,69,189,2.1,0.6325,2.5045,3,1.3681,0,0.63032
10,3,70,190,2.1,0.5386,2.8996,2,1.2997,1,0.37926
10,3,71,191,2.1,0.50355,2.7475,2,1.4013,0,1.9189
10,3,72,192,2.1,0.34708,2.7666,2,1.1874,1,0.55943
10,3,73,193,4.2,0.36543,5.2558,3,2.0365,1,0.53016
10,3,74,194,4.2,0.31787,5.7215,2,1.2887,1,0.39635
10,3,75,195,2.1,0.51646,2.2068,2,1.3839,0,0.84189
10,3,76,196,2.1,0.30783,3.0398,3,1.4186,1,0.26878
10,3,77,197,4.2,0.40802,4.9781,2,1.1788,1,0.36779
10,3,78,198,2.1,0.68411,3.5812,2,1.4632,0,0.47965
10,3,79,199,4.2,1.1587,4.2763,3,1.3559,0,0.74769
10,3,80,200,4.2,0.37705,4.343,2,1.0293,1,0.41464
10,3,81,201,2.1,0.72122,4.1357,2,1.9773,0,0.91276
10,3,82,202,4.2,0.27145,3.8753,3,1.3171,1,0.4544
10,3,83,203,4.2,0.92808,5.6541,2,0.80013,1,0.5562
10,3,84,204,2.1,0.87534,3.0145,3,1.2512,1,1.9061
10,3,85,205,2.1,0.48078,3.3287,2,1.2237,1,0.12317
10,3,86,206,4.2,0.73605,3.8714,2,1.151,0,0.21827
10,3,87,207,2.1,0.41549,2.8425,2,0.79681,0,0.19028
10,3,88,208,2.1,0.36085,2.6058,3,0.79468,1,0.47951
10,3,89,209,4.2,0.25596,4.3751,2,1.3162,0,0.37887
10,3,90,210,2.1,0.54851,2.6553,2,1.1554,0,0.52304
11,3,1,121,4.2,1.0682,4.7314,3,0.90905,0,1.914
11,3,2,122,2.1,0.93886,2.3363,3,1.0412,1,1.2893
11,3,3,123,2.1,0.75431,2.0359,2,1.1679,0,1.1057
11,3,4,124,4.2,1.1054,4.4239,3,1.1142,1,1.1023
11,3,5,125,4.2,0.58569,4.3091,2,0.9672,1,1.0559
11,3,6,126,2.1,8.4011,2.9921,1,0.52067,0,0.49783
11,3,7,127,2.1,1.9414,2.7739,2,0.8196,1,0.99548
11,3,8,128,4.2,1.2428,6.1509,1,1.7206,1,0.40629
11,3,9,129,2.1,1.4709,2.6957,2,1.4629,0,1.1669
11,3,10,130,2.1,6.5605,2.9157,1,0.68978,0,0.57598
11,3,11,131,4.2,0.84388,5.0053,2,0.55231,1,0.5971
11,3,12,132,4.2,1.168,3.582,2,2.6621,0,0.47548
11,3,13,133,4.2,0.79166,3.9773,2,2.157,0,0.30856
11,3,14,134,4.2,1.0872,5.4583,1,2.1505,1,0.39022
11,3,15,135,2.1,1.0222,2.5862,3,0.49012,1,1.6395
11,3,16,136,2.1,0.92177,2.186,3,0.92862,0,1.589
11,3,17,137,4.2,0.79809,4.4834,2,1.599,0,0.86538
11,3,18,138,2.1,0.99243,2.9395,2,3.0306,0,1.0759
11,3,19,139,2.1,1.0434,2.1653,1,0.8246,0,0.51403
11,3,20,140,4.2,0.81698,4.9564,2,1.3117,1,0.70375
11,3,21,141,4.2,1.0029,4.3221,2,0.96308,1,0.61376
11,3,22,142,2.1,2.565,3.1147,2,0.65099,1,0.49582
11,3,23,143,4.2,0.56528,4.7678,1,1.1497,1,0.45324
11,3,24,144,2.1,1.2021,2.5319,2,0.48733,1,0.44805
11,3,25,145,4.2,1.3344,5.1308,2,1.1568,1,1.3503
11,3,26,146,2.1,1.204,2.0451,3,0.5518,0,1.084
11,3,27,147,4.2,0.60944,4.8651,3,0.9345,1,0.44429
11,3,28,148,4.2,1.4565,5.0098,1,7.1407,1,0.31072
11,3,29,149,2.1,0.86374,2.9689,2,1.3274,1,0.6267
11,3,30,150,4.2,0.8953,3.7805,3,1.1985,0,2.0025
11,3,31,151,2.1,0.76923,1.8343,3,1.7791,0,1.0012
11,3,32,152,4.2,0.74926,4.8544,3,0.63649,1,1.1093
11,3,33,153,2.1,1.0922,2.752,2,0.80158,0,1.7584
11,3,34,154,4.2,0.65536,4.3109,3,0.95607,1,1.099
11,3,35,155,2.1,0.85874,2.302,3,0.99074,1,1.0249
11,3,36,156,2.1,0.85609,2.1749,3,1.0594,0,1.0009
11,3,37,157,4.2,0.98364,3.5935,2,0.88243,1,1.1043
11,3,38,158,4.2,0.73567,5.1707,2,1.4762,1,0.56349
11,3,39,159,4.2,0.88436,4.9821,2,0.54602,1,0.38981
11,3,40,160,4.2,0.99396,5.6032,2,1.3498,1,0.94145
11,3,41,161,2.1,0.65654,1.9492,3,2.1897,0,1.7327
11,3,42,162,4.2,0.64061,4.1513,2,1.1379,0,1.2231
11,3,43,163,2.1,1.9796,3.5409,1,1.3805,1,0.26383
11,3,44,164,2.1,1.7823,6.2187,1,1.6335,1,0.27904
11,3,45,165,2.1,1.1836,2.605,2,0.95668,1,1.0612
11,3,46,166,2.1,0.84453,2.743,2,1.4463,1,1.3177
11,3,47,167,4.2,1.0777,5.2652,2,0.87121,1,1.4475
11,3,48,168,4.2,0.046211,4.6039,1,1.1396,1,0.64956
11,3,49,169,4.2,0.73318,3.8681,1,1.9519,1,2.8173
11,3,50,170,2.1,0.94638,1.2931,3,1.0636,0,0.99057
11,3,51,171,2.1,0.6602,2.4153,2,0.86287,0,0.82623
11,3,52,172,4.2,1.0083,3.6391,2,1.1774,0,1.3899
11,3,53,173,2.1,1.1473,3.7318,1,1.5374,1,0.54414
11,3,54,174,4.2,0.75883,3.6397,2,0.81633,0,0.91925
11,3,55,175,4.2,0.7791,4.7191,2,6.9642,1,1.3885
11,3,56,176,2.1,1.3631,4.8551,1,1.1532,1,0.53266
11,3,57,177,2.1,0.87045,1.8844,3,0.91671,0,1.1431
11,3,58,178,4.2,0.5181,4.0087,2,1.5799,0,1.6799
11,3,59,179,2.1,1.3534,1.8205,3,0.86987,0,0.74583
11,3,60,180,2.1,1.2426,3.5524,1,0.79952,1,0.31741
11,3,61,181,2.1,0.6585,1.6648,3,1.1025,1,0.64457
11,3,62,182,2.1,0.51813,1.7589,2,2.1744,0,0.4726
11,3,63,183,4.2,0.74814,3.9787,2,0.9589,1,1.6885
11,3,64,184,2.1,0.50158,2.434,2,1.2259,1,0.87705
11,3,65,185,2.1,0.54457,3.2689,1,0.97576,1,0.51406
11,3,66,186,4.2,0.77774,4.2171,2,3.3504,1,2.3019
11,3,67,187,4.2,0.9889,4.3491,1,0.88657,1,2.1827
11,3,68,188,2.1,0.86444,1.7579,2,1.8492,0,0.46458
11,3,69,189,2.1,0.84593,2.8064,2,0.89348,0,1.0526
11,3,70,190,2.1,0.67308,2.6001,1,4.6755,1,1.2543
11,3,71,191,4.2,0.72046,3.1983,2,3.6634,0,3.3234
11,3,72,192,2.1,0.84601,2.9561,2,3.9673,1,3.0511
11,3,73,193,4.2,0.99395,5.2274,2,0.92897,1,0.65204
11,3,74,194,4.2,0.74666,5.0199,1,5.6878,0,1.7995
11,3,75,195,4.2,0.99723,3.4315,1,1.2011,0,1.1427
11,3,76,196,4.2,0.85757,4.4262,3,1.1292,0,1.3307
11,3,77,197,2.1,1.0217,2.3731,3,0.51947,0,1.2104
11,3,78,198,2.1,0.99355,3.0541,3,1.0654,0,1.4035
11,3,79,199,4.2,1.0433,3.8283,2,1.0206,0,0.58438
11,3,80,200,4.2,0.63903,4.4754,3,0.69016,1,0.87585
11,3,81,201,2.1,0.99366,1.8643,3,0.46296,0,0.94186
11,3,82,202,2.1,0.972,2.9855,1,0.72748,1,0.50456
11,3,83,203,2.1,0.76707,2.6058,2,0.60609,1,0.86307
11,3,84,204,2.1,0.9253,1.6016,2,2.3686,1,1.6148
11,3,85,205,4.2,0.93749,4.1842,3,1.5015,0,1.7427
11,3,86,206,4.2,1.6717,5.222,3,0.63433,1,1.6332
11,3,87,207,2.1,0.51576,2.2435,3,0.99993,0,0.69226
11,3,88,208,4.2,1.1762,5.8019,2,1.4346,1,1.6685
11,3,89,209,4.2,14.41,5.1962,1,1.03,1,0.51484
11,3,90,210,4.2,0.57772,3.6675,2,1.1508,1,0.83153
12,3,1,121,4.2,0.33167,3.7801,3,0.62377,0,1.063
12,3,2,122,4.2,0.2728,3.9137,3,1.3099,0,1.9145
12,3,3,123,4.2,0.75017,3.4059,3,0.74205,0,1.801
12,3,4,124,2.1,0.45224,2.4583,2,0.5096,0,0.51662
12,3,5,125,2.1,0.4501,2.0314,3,0.38829,0,0.69971
12,3,6,126,4.2,0.44275,3.8789,3,0.35871,0,0.74154
12,3,7,127,2.1,0.60737,2.5017,3,0.4397,1,1.2643
12,3,8,128,2.1,0.51953,2.5595,3,1.5974,0,1.0255
12,3,9,129,4.2,0.57145,4.0112,2,0.14532,0,0.3905
12,3,10,130,2.1,0.64873,2.7554,3,1.0553,1,0.83596
12,3,11,131,4.2,0.42128,3.5744,2,0.9932,1,0.86358
12,3,12,132,2.1,0.72475,2.0268,3,0.4503,0,1.3447
12,3,13,133,4.2,1.0101,4.6655,3,0.72248,0,0.56255
12,3,14,134,4.2,0.67197,4.5238,2,0.92724,1,0.4662
12,3,15,135,2.1,0.65207,2.6963,3,0.83783,1,1.1606
12,3,16,136,4.2,0.34826,3.6054,2,1.4651,1,1.2402
12,3,17,137,4.2,0.43955,4.0892,1,1.0513,1,0.64458
12,3,18,138,2.1,0.7064,3.112,2,0.54935,1,0.54335
12,3,19,139,4.2,0.27401,5.0156,2,0.90843,1,0.8762
12,3,20,140,2.1,0.72348,1.988,3,0.58219,1,1.6547
12,3,21,141,4.2,0.39026,4.3134,2,0.89681,1,0.60299
12,3,22,142,2.1,0.85241,3.7951,2,1.1095,1,0.43884
12,3,23,143,2.1,0.43856,2.0868,2,0.36861,0,0.50806
12,3,24,144,4.2,0.24648,4.8544,2,0.77752,1,0.37892
12,3,25,145,4.2,0.65259,3.6596,2,0.49437,0,0.76357
12,3,26,146,2.1,0.60442,2.4985,1,0.41178,0,0.42742
12,3,27,147,2.1,0.37974,2.3579,2,0.197,0,0.37874
12,3,28,148,4.2,0.40439,4.324,3,0.98968,1,1.0627
12,3,29,149,4.2,0.40499,5.7752,2,0.86131,1,0.32555
12,3,30,150,2.1,0.63841,2.1991,2,0.22487,0,0.31644
12,3,31,151,2.1,0.59369,2.1169,2,0.81459,0,0.67826
12,3,32,152,2.1,0.31137,2.0567,2,0.33291,0,0.44494
12,3,33,153,2.1,0.43938,2.4763,2,0.18458,0,0.19745
12,3,34,154,4.2,0.49042,5.1146,1,0.60673,1,0.7517
12,3,35,155,4.2,0.46386,3.2924,3,0.35722,0,1.3773
12,3,36,156,4.2,0.33516,5.2091,2,0.68937,1,0.58713
12,3,37,157,4.2,0.36803,3.5837,2,0.58459,1,0.4952
12,3,38,158,4.2,0.3205,2.9868,2,0.3773,0,0.43913
12,3,39,159,2.1,0.44402,1.9046,3,0.26967,0,0.51085
12,3,40,160,4.2,0.34563,4.0079,2,0.70404,1,1.0973
12,3,41,161,4.2,0.53551,3.6837,3,0.87506,1,1.4644
12,3,42,162,2.1,0.83641,2.1089,2,2.6611,0,0.66092
12,3,43,163,2.1,0.59124,1.4395,3,0.36097,0,0.513
12,3,44,164,2.1,0.36648,2.0457,3,0.22633,1,1.0634
12,3,45,165,4.2,0.66782,3.9693,2,1.3745,1,1.1616
12,3,46,166,4.2,0.51297,3.7702,2,0.76223,0,0.33942
12,3,47,167,4.2,0.36419,3.404,3,0.36555,1,0.75535
12,3,48,168,2.1,0.62781,2.3554,2,0.60601,0,0.63749
12,3,49,169,2.1,0.56139,2.4932,3,0.37361,0,0.62545
12,3,50,170,2.1,0.47485,2.4791,2,0.61283,1,0.46455
12,3,51,171,4.2,0.34946,3.2075,1,0.70636,1,0.4877
12,3,52,172,4.2,1.6715,4.5577,1,0.69074,1,0.37658
12,3,53,173,4.2,0.15546,4.1136,2,0.58493,1,0.61988
12,3,54,174,2.1,0.52419,1.5136,2,0.76365,0,2.0147
12,3,55,175,4.2,0.30039,2.7457,3,0.50013,1,1.0812
12,3,56,176,2.1,0.41159,3.019,2,0.73948,0,0.72366
12,3,57,177,4.2,0.67752,5.3048,1,0.95135,1,0.44473
12,3,58,178,2.1,0.70846,2.0402,3,0.39627,0,1.103
12,3,59,179,4.2,0.49266,2.7912,3,0.45782,1,0.76495
12,3,60,180,2.1,0.45965,2.1035,2,1.4802,0,0.75131
12,3,61,181,2.1,0.3964,9.7462,1,1.0089,1,0.52623
12,3,62,182,2.1,0.39585,2.408,2,0.15848,0,0.090905
12,3,63,183,2.1,0.35405,2.6741,2,0.22045,1,0.22399
12,3,64,184,4.2,0.41887,3.7833,1,1.3135,1,0.20174
12,3,65,185,2.1,1.4182,3.3062,2,0.1795,0,0.065664
12,3,66,186,2.1,0.6382,2.4616,2,0.58654,0,0.54722
12,3,67,187,2.1,0.93033,2.4943,2,0.64992,0,0.51806
12,3,68,188,4.2,0.46141,3.1308,3,0.48917,1,1.3251
12,3,69,189,2.1,0.35977,2.379,3,0.43865,0,0.90015
12,3,70,190,4.2,0.33909,3.5252,2,0.45584,0,0.58819
12,3,71,191,4.2,0.33983,4.2148,2,1.0102,1,1.1016
12,3,72,192,4.2,0.37359,3.5147,2,1.325,1,0.60063
12,3,73,193,2.1,0.83288,3.0426,3,0.45925,0,0.84114
12,3,74,194,4.2,0.66494,3.6431,2,0.46999,1,0.42155
12,3,75,195,2.1,0.35879,2.3515,2,0.42916,1,0.27731
12,3,76,196,2.1,0.28706,2.0978,2,0.33742,0,0.56182
12,3,77,197,2.1,0.49099,1.9763,2,0.38745,0,0.47367
12,3,78,198,4.2,0.32451,3.4906,2,0.44312,1,0.61661
12,3,79,199,2.1,0.54581,2.2316,2,0.41237,0,0.47737
12,3,80,200,4.2,0.35016,3.845,2,0.39696,1,0.50313
12,3,81,201,4.2,0.37134,4.538,3,0.41208,1,0.66452
12,3,82,202,4.2,0.28974,3.8768,2,0.52025,1,0.5976
12,3,83,203,4.2,0.31642,3.7067,2,0.44088,1,0.46478
12,3,84,204,2.1,0.45231,3.659,3,1.3062,0,0.8857
12,3,85,205,4.2,0.34613,3.5322,2,0.56353,1,0.52776
12,3,86,206,2.1,0.58326,2.4931,2,0.38562,0,0.54768
12,3,87,207,2.1,0.53526,2.6833,1,0.78747,1,0.69736
12,3,88,208,4.2,0.27386,3.4157,3,0.67517,1,0.45132
12,3,89,209,2.1,0.54337,2.552,2,0.34184,1,0.21569
12,3,90,210,2.1,0.39233,3.4903,2,1.7556,0,0.24546
13,3,1,121,4.2,1.7818,2.2807,3,1.4993,0,0.91437
13,3,2,122,2.1,0.76361,1.1206,3,0.82067,1,0.72249
13,3,3,123,4.2,0.87287,3.7864,2,1.1001,1,0.68103
13,3,4,124,4.2,0.62593,2.8268,1,0.92375,0,0.58774
13,3,5,125,4.2,0.65885,3.4901,2,1.5551,1,0.65837
13,3,6,126,4.2,0.64322,3.4783,3,1.6475,0,1.3016
13,3,7,127,2.1,0.78658,1.9842,3,1.2537,1,0.40764
13,3,8,128,2.1,0.73278,1.2673,2,1.0187,0,0.65645
13,3,9,129,4.2,0.7445,3.2683,3,1.1994,1,0.45494
13,3,10,130,4.2,0.55112,3.4951,2,2.9605,0,0.89669
13,3,11,131,2.1,0.64043,1.0517,3,0.99304,0,0.27696
13,3,12,132,2.1,0.6727,1.3005,3,1.2298,0,0.27553
13,3,13,133,2.1,0.45903,1.3515,3,0.79464,1,0.36753
13,3,14,134,4.2,0.51174,2.7436,2,0.97168,0,0.49826
13,3,15,135,2.1,0.99961,2.9179,1,0.63789,0,0.31067
13,3,16,136,4.2,1.2335,3.2664,1,1.1911,1,0.94977
13,3,17,137,4.2,0.58618,2.4348,2,1.2399,0,0.41068
13,3,18,138,2.1,0.54137,0.90185,3,1.0569,0,0.30009
13,3,19,139,2.1,0.52734,1.2544,2,1.9211,0,0.65698
13,3,20,140,4.2,0.54563,2.2935,2,1.4378,0,1.1707
13,3,21,141,4.2,0.60308,3.0102,1,2.2726,0,0.4948
13,3,22,142,2.1,0.82097,1.3466,2,1.1761,1,0.5523
13,3,23,143,2.1,0.97184,0.8981,3,1.9031,0,0.89286
13,3,24,144,4.2,0.50496,3.4109,3,1.9223,0,0.39565
13,3,25,145,2.1,1.0225,0.97408,3,1.1499,0,0.45421
13,3,26,146,4.2,0.45486,3.6484,2,1.2504,0,0.31771
13,3,27,147,4.2,1.0752,2.2518,1,1.0284,0,0.39086
13,3,28,148,2.1,0.6595,1.328,2,0.82374,0,0.30149
13,3,29,149,4.2,0.58595,3.1209,3,0.86623,1,0.8933
13,3,30,150,4.2,0.70968,2.6408,3,0.90761,1,1.2388
13,3,31,151,2.1,0.50029,1.4074,2,0.82376,0,0.31311
13,3,32,152,2.1,0.53822,1.0862,3,2.8587,0,0.60878
13,3,33,153,4.2,0.56202,4.194,3,1.0198,0,0.65729
13,3,34,154,2.1,0.54648,1.4199,3,1.8073,0,1.6984
13,3,35,155,4.2,0.49961,3.3064,2,1.0928,0,0.52658
13,3,36,156,4.2,0.47516,3.0654,3,1.7263,0,0.93823
13,3,37,157,2.1,0.65281,1.2466,3,1.1024,0,0.54385
13,3,38,158,4.2,0.90967,3.1151,2,2.0138,0,0.72968
13,3,39,159,4.2,1.3569,3.4103,3,2.4722,1,1.1053
13,3,40,160,4.2,1.9526,3.9924,1,3.7563,0,1.6154
13,3,41,161,2.1,1.5254,1.1378,3,1.7843,0,0.9414
13,3,42,162,4.2,0.84067,3.6386,2,1.6775,1,0.6876
13,3,43,163,2.1,1.0603,1.2159,3,0.77913,0,0.33876
13,3,44,164,4.2,0.92596,2.3399,1,0.4088,0,0.42844
13,3,45,165,2.1,0.56281,2.3827,2,2.0133,0,0.9397
13,3,46,166,4.2,1.0098,2.8648,2,1.0144,0,1.991
13,3,47,167,2.1,1.0088,2.5757,1,0.74822,1,0.52872
13,3,48,168,4.2,0.77039,2.9344,3,1.1889,1,0.91003
13,3,49,169,4.2,0.6644,2.6412,3,2.4207,1,1.7804
13,3,50,170,4.2,0.89107,2.8882,2,1.9548,0,1.1188
13,3,51,171,2.1,0.70011,1.395,3,0.76044,0,0.36679
13,3,52,172,2.1,0.88463,1.044,2,1.6117,0,0.37815
13,3,53,173,2.1,0.57565,1.452,3,1.0452,1,0.67981
13,3,54,174,2.1,1.0861,2.0447,3,1.7757,0,0.26268
13,3,55,175,4.2,0.44147,3.2026,3,1.1774,0,0.28979
13,3,56,176,4.2,0.48132,2.9553,1,1.0052,1,0.99733
13,3,57,177,2.1,0.56174,1.232,3,1.228,0,0.29035
13,3,58,178,2.1,0.71823,1.5708,3,0.74534,0,0.36374
13,3,59,179,4.2,0.63965,2.8371,3,0.90443,0,0.29691
13,3,60,180,2.1,0.77049,1.585,3,0.89171,0,0.31453
13,3,61,181,4.2,0.48944,3.1258,1,4.5712,0,0.71488
13,3,62,182,2.1,0.81391,1.5197,3,1.0823,1,1.3915
13,3,63,183,4.2,0.53671,3.1103,2,1.0591,1,0.37657
13,3,64,184,2.1,0.62583,0.85177,3,0.78413,0,0.29433
13,3,65,185,2.1,1.8995,1.3438,1,0.67535,0,0.39207
13,3,66,186,2.1,0.63676,1.8604,3,1.0135,0,0.27624
13,3,67,187,4.2,0.87654,2.591,1,2.4203,0,0.59221
13,3,68,188,2.1,1.3607,2.1529,3,1.192,0,0.36382
13,3,69,189,4.2,0.58415,3.7322,3,0.8256,0,0.66312
13,3,70,190,2.1,0.74357,1.3778,3,1.2497,1,0.61623
13,3,71,191,2.1,0.98774,1.5607,3,1.7386,0,1.0339
13,3,72,192,2.1,1.3837,1.817,1,3.2773,0,1.6725
13,3,73,193,4.2,0.52178,3.5373,3,1.6767,1,0.31257
13,3,74,194,2.1,1.0555,2.2355,2,1.317,0,0.32997
13,3,75,195,2.1,0.9567,2.3004,2,0.87692,0,0.40235
13,3,76,196,4.2,1.1116,3.0032,2,1.7913,0,0.29821
13,3,77,197,4.2,0.41449,2.9425,1,1.3953,0,0.27953
13,3,78,198,2.1,0.86391,1.0706,3,1.1214,0,0.40872
13,3,79,199,2.1,0.69055,1.6395,3,1.559,0,0.2629
13,3,80,200,4.2,2.4002,3.1181,1,0.57514,0,0.32631
13,3,81,201,4.2,1.0137,3.495,2,1.3714,1,0.33404
13,3,82,202,4.2,0.7429,2.5279,1,1.5754,0,0.43716
13,3,83,203,4.2,0.64906,1.7184,3,0.96734,0,0.28007
13,3,84,204,2.1,0.57329,1.2134,3,0.90081,0,0.2451
13,3,85,205,2.1,0.55206,1.6334,3,0.81629,0,0.23065
13,3,86,206,2.1,0.75945,2.0906,1,1.2092,1,0.67765
13,3,87,207,4.2,0.97226,4.135,1,0.88949,0,0.325
13,3,88,208,2.1,0.865,1.8161,3,0.55268,1,0.34599
13,3,89,209,2.1,1.2481,2.5685,3,1.6279,0,1.0145
13,3,90,210,4.2,0.67455,4.1011,3,1.2259,1,0.35215
14,3,1,121,2.1,0.87786,2.1054,3,0.73215,0,0.41667
14,3,2,122,2.1,0.97049,2.3214,2,0.406,1,0.36372
14,3,3,123,4.2,0.71869,4.0089,2,1.392,1,1.1261
14,3,4,124,2.1,0.91011,1.8279,3,0.8143,0,0.30349
14,3,5,125,2.1,0.67455,1.5151,1,2.3641,0,0.41361
14,3,6,126,2.1,0.65247,2.084,3,0.51432,1,0.44279
14,3,7,127,2.1,0.53359,2.2698,2,1.2911,1,0.40078
14,3,8,128,4.2,0.76033,4.6273,3,0.80616,1,0.69954
14,3,9,129,4.2,0.69581,3.5943,1,0.8963,1,0.46421
14,3,10,130,2.1,0.75837,1.6894,3,0.4468,0,0.31732
14,3,11,131,2.1,0.8989,1.7546,2,0.65823,0,0.3394
14,3,12,132,2.1,0.71834,3.4566,3,0.36722,1,0.37042
14,3,13,133,4.2,0.63807,4.7243,2,0.35216,1,0.35927
14,3,14,134,4.2,0.59018,4.2759,3,0.57975,1,0.35355
14,3,15,135,2.1,0.6732,2.5262,3,0.40985,0,1.4175
14,3,16,136,4.2,0.52895,4.0938,3,0.38191,1,0.32976
14,3,17,137,2.1,0.6501,1.4939,3,0.41434,0,0.33007
14,3,18,138,2.1,0.54219,2.0653,1,0.35115,1,0.3961
14,3,19,139,2.1,0.62731,2.4921,2,0.36046,1,0.37542
14,3,20,140,4.2,0.59244,4.566,1,1.1106,1,0.46576
14,3,21,141,4.2,0.62494,4.7396,2,0.47556,1,0.43992
14,3,22,142,2.1,1.0238,1.3243,3,0.53652,0,0.32316
14,3,23,143,4.2,0.59508,4.3184,1,0.43944,1,0.42592
14,3,24,144,2.1,0.63368,2.2433,3,0.47482,0,0.31376
14,3,25,145,2.1,0.59027,1.776,2,0.39914,0,0.38149
14,3,26,146,4.2,0.60435,4.8361,3,2.2129,1,0.48985
14,3,27,147,4.2,0.66936,4.4093,2,0.39197,1,0.36606
14,3,28,148,2.1,0.59861,1.955,1,0.4322,0,0.35577
14,3,29,149,2.1,0.60104,1.9578,3,0.53472,0,0.3207
14,3,30,150,4.2,0.70553,3.8003,1,1.2123,1,0.51413
14,3,31,151,4.2,0.75272,3.1969,1,1.5495,0,1.0662
14,3,32,152,4.2,0.79303,3.5403,3,0.57967,0,1.1914
14,3,33,153,4.2,1.1067,3.4369,3,0.57628,1,0.45284
14,3,34,154,4.2,0.77144,3.7721,3,0.86536,0,0.39169
14,3,35,155,4.2,0.50052,4.6697,1,0.91451,1,0.55297
14,3,36,156,4.2,0.824,3.275,1,0.60739,1,0.50141
14,3,37,157,4.2,0.5563,3.2746,2,0.56971,0,0.34652
14,3,38,158,4.2,0.70095,4.3575,1,0.98983,1,0.52476
14,3,39,159,2.1,0.57008,1.6842,3,0.50444,0,0.28646
14,3,40,160,4.2,0.58445,3.87,2,0.64949,1,0.3316
14,3,41,161,4.2,0.61158,3.3809,3,1.1366,0,0.3454
14,3,42,162,4.2,0.54812,3.8677,1,0.85156,1,0.34532
14,3,43,163,4.2,0.53455,4.0583,3,1.1914,1,0.91273
14,3,44,164,2.1,0.95732,1.1883,1,0.7967,0,0.35324
14,3,45,165,2.1,0.74369,1.9166,3,0.76576,0,0.46752
14,3,46,166,2.1,0.64878,1.9187,2,0.4415,1,0.6403
14,3,47,167,2.1,0.50953,2.1914,3,0.82241,0,0.34963
14,3,48,168,2.1,0.59061,1.5645,3,0.71328,0,0.49015
14,3,49,169,2.1,0.59688,2.3326,2,0.50091,1,0.40761
14,3,50,170,2.1,0.62419,2.8645,1,0.76248,1,0.32863
14,3,51,171,2.1,0.60378,2.4603,1,0.93642,1,0.50857
14,3,52,172,4.2,0.96378,5.1695,2,0.81201,1,0.70119
14,3,53,173,4.2,0.78677,4.1343,1,0.53797,1,0.49871
14,3,54,174,2.1,0.87694,1.8029,3,0.33099,0,0.41774
14,3,55,175,2.1,0.80361,1.5729,2,0.4968,0,0.7041
14,3,56,176,4.2,0.6531,4.1093,1,0.56872,1,0.48343
14,3,57,177,2.1,0.70737,1.9888,2,0.49472,0,0.47697
14,3,58,178,2.1,0.7454,1.1558,3,0.48597,0,1.8091
14,3,59,179,4.2,0.71905,4.5096,1,0.56617,1,0.51921
14,3,60,180,2.1,0.80658,2.4487,2,0.6622,1,0.42783
14,3,61,181,2.1,0.9241,1.7383,2,0.80792,0,0.56366
14,3,62,182,4.2,0.5304,4.3711,3,0.66246,1,0.46356
14,3,63,183,4.2,0.64793,4.4801,1,0.55725,1,0.98939
14,3,64,184,4.2,0.6638,3.9205,1,0.50045,1,0.47032
14,3,65,185,2.1,0.58003,1.6072,2,0.63587,1,0.47134
14,3,66,186,4.2,0.56005,4.1543,3,0.47424,1,0.47671
14,3,67,187,4.2,0.72487,3.5258,1,0.53237,1,0.54317
14,3,68,188,2.1,0.6589,1.5273,3,0.45111,0,0.34724
14,3,69,189,2.1,0.57881,2.2696,2,0.3912,1,0.42724
14,3,70,190,2.1,0.59269,2.0907,1,0.43514,1,0.39595
14,3,71,191,2.1,0.67946,1.9054,3,0.60816,0,0.51533
14,3,72,192,4.2,0.55796,5.5892,1,0.4018,1,0.42093
14,3,73,193,4.2,0.68093,4.6704,3,0.4017,1,0.51012
14,3,74,194,4.2,0.73969,4.7124,1,0.51883,1,0.484
14,3,75,195,2.1,0.64485,2.1054,3,0.50774,1,0.42712
14,3,76,196,4.2,0.47845,4.4943,3,0.36822,1,0.8842
14,3,77,197,2.1,0.68985,2.3886,2,0.48069,0,0.39179
14,3,78,198,4.2,0.53784,5.0111,3,0.34305,1,0.41689
14,3,79,199,4.2,0.54435,4.08,1,0.98385,1,0.59349
14,3,80,200,4.2,0.55581,4.0128,3,0.34616,0,0.32919
14,3,81,201,4.2,0.46863,4.2705,2,0.53725,1,0.54835
14,3,82,202,4.2,0.58268,3.7695,3,0.44865,0,0.44321
14,3,83,203,2.1,0.67761,2.1173,1,0.46413,0,0.51712
14,3,84,204,4.2,0.53097,4.4924,1,0.55351,1,0.43599
14,3,85,205,4.2,0.48171,4.8306,1,0.7709,1,0.45967
14,3,86,206,4.2,0.65151,3.9466,3,0.93411,0,0.29413
14,3,87,207,2.1,0.89787,1.746,2,0.42303,0,0.35062
14,3,88,208,2.1,0.74676,3.333,1,2.0106,1,0.88772
14,3,89,209,2.1,0.53458,2.0085,3,0.46141,0,0.33892
14,3,90,210,2.1,0.54171,2.7766,3,1.5353,1,0.46863
15,3,1,121,2.1,1.9441,1.777,2,1.4751,1,1.2
15,3,2,122,4.2,0.98379,3.2686,2,1.6383,0,0.68247
15,3,3,123,4.2,0.85929,2.739,3,2.0935,1,1.188
15,3,4,124,2.1,0.83311,2.081,3,2.2371,1,1.693
15,3,5,125,4.2,0.51069,2.9554,3,2.504,0,0.67989
15,3,6,126,4.2,0.55783,2.8273,2,2.0113,0,0.56255
15,3,7,127,4.2,0.63052,2.8703,1,1.828,0,0.56504
15,3,8,128,4.2,0.62733,3.1918,2,1.5826,0,1.0281
15,3,9,129,4.2,0.66729,3.0316,3,1.877,1,1.6887
15,3,10,130,2.1,0.86289,1.3063,2,1.5475,0,0.78859
15,3,11,131,4.2,0.76326,2.4558,2,3.683,0,0.70047
15,3,12,132,2.1,0.76451,1.5326,3,1.7277,0,1.1272
15,3,13,133,2.1,0.93389,1.3316,2,1.377,0,1.1773
15,3,14,134,4.2,0.55594,2.7373,1,1.7664,0,1.2787
15,3,15,135,2.1,0.67605,1.8778,2,1.3637,1,1.089
15,3,16,136,4.2,0.72232,3.3379,3,1.7522,0,0.79233
15,3,17,137,2.1,0.79039,1.3371,3,2.6588,0,2.4345
15,3,18,138,2.1,0.99088,1.6127,2,7.5989,1,4.6642
15,3,19,139,4.2,0.74164,3.2148,3,2.5131,1,0.48888
15,3,20,140,2.1,1.1236,2.1121,3,4.4384,1,3.0395
15,3,21,141,2.1,0.74777,1.3697,1,1.8448,0,0.93884
15,3,22,142,4.2,0.75573,2.6359,3,1.8788,0,0.77604
15,3,23,143,4.2,0.71883,3.221,3,1.8908,1,0.98502
15,3,24,144,2.1,0.69296,0.95275,2,1.5465,0,0.55501
15,3,25,145,2.1,0.76868,1.4464,2,3.5871,0,3.1892
15,3,26,146,2.1,0.73742,1.2846,2,2.0068,0,2.3213
15,3,27,147,4.2,0.81334,4.0063,3,1.6652,0,2.2901
15,3,28,148,4.2,0.65729,2.9639,3,1.6139,0,2.3008
15,3,29,149,2.1,0.78391,1.2941,2,2.2269,0,1.5873
15,3,30,150,2.1,0.72697,2.1029,3,2.7057,0,1.4057
15,3,31,151,4.2,0.72695,3.6031,3,1.4891,1,0.68448
15,3,32,152,4.2,0.86254,3.0935,3,2.3842,1,1.8149
15,3,33,153,2.1,0.73485,1.9073,2,1.9604,0,1.0748
15,3,34,154,2.1,0.55632,1.3128,3,1.6378,0,0.59548
15,3,35,155,4.2,0.59642,2.9452,2,1.4857,0,0.79452
15,3,36,156,4.2,0.48275,3.0688,2,3.6382,0,2.3143
15,3,37,157,2.1,0.59964,1.1809,3,2.04,0,0.64575
15,3,38,158,4.2,0.62981,3.2833,2,1.2649,1,0.96426
15,3,39,159,2.1,0.52153,2.0627,2,2.0382,0,1.3962
15,3,40,160,4.2,0.67201,2.7751,2,3.1209,1,0.95252
15,3,41,161,4.2,0.60287,3.1839,2,1.4251,0,0.56298
15,3,42,162,2.1,3.2042,1.7809,1,1.1883,0,1.4096
15,3,43,163,2.1,0.58373,1.4576,2,1.8357,0,0.66885
15,3,44,164,2.1,0.51657,1.7568,3,3.3855,1,1.2038
15,3,45,165,2.1,0.60516,1.1992,3,1.5039,0,1.2077
15,3,46,166,4.2,0.53627,3.085,3,1.5008,1,0.95453
15,3,47,167,2.1,0.87309,1.1495,2,1.2555,0,0.90947
15,3,48,168,2.1,0.61697,1.6315,2,1.4149,0,0.61434
15,3,49,169,4.2,0.69106,3.0139,3,5.2005,1,1.1357
15,3,50,170,2.1,0.77544,1.1773,2,2.0398,0,0.5208
15,3,51,171,4.2,0.57636,3.7907,2,1.2553,1,0.74743
15,3,52,172,2.1,0.87445,1.5885,2,1.5094,0,0.77548
15,3,53,173,4.2,0.55856,3.2397,2,1.7185,1,0.5916
15,3,54,174,2.1,0.60978,1.3794,2,1.9248,1,1.1231
15,3,55,175,2.1,0.57857,1.644,3,1.5761,0,1.213
15,3,56,176,4.2,0.55459,2.6743,2,4.6455,1,1.6947
15,3,57,177,4.2,0.63242,2.4191,2,3.1029,0,0.80165
15,3,58,178,2.1,0.73608,1.7336,3,1.0543,0,4.6346
15,3,59,179,2.1,0.61246,1.7307,2,2.363,0,0.68981
15,3,60,180,4.2,0.55279,3.1593,2,4.2461,0,0.85856
15,3,61,181,2.1,0.89497,1.7295,3,1.8378,0,1.6821
15,3,62,182,2.1,0.70629,1.4501,3,3.9042,0,0.41314
15,3,63,183,4.2,0.56407,2.7034,2,1.492,0,0.37518
15,3,64,184,2.1,0.79868,1.6168,2,1.2169,1,1.7553
15,3,65,185,2.1,0.70075,1.6937,2,1.5891,0,1.0965
15,3,66,186,2.1,0.82167,1.986,3,1.4681,1,0.55534
15,3,67,187,4.2,1.1655,2.9079,2,2.3955,1,1.2253
15,3,68,188,2.1,0.97937,1.2186,2,1.6446,0,0.47585
15,3,69,189,4.2,0.63248,3.2056,3,1.7798,0,0.82767
15,3,70,190,2.1,0.48945,1.9385,3,1.694,0,1.0776
15,3,71,191,4.2,0.53043,3.3341,3,1.478,1,1.6137
15,3,72,192,4.2,0.45214,2.6216,2,1.242,1,0.5758
15,3,73,193,2.1,0.51207,1.8319,3,1.4007,0,1.143
15,3,74,194,2.1,0.48976,1.7518,2,4.854,0,1.7144
15,3,75,195,2.1,0.50653,1.5007,1,1.8305,0,4.0284
15,3,76,196,4.2,0.79823,2.5297,2,1.2265,0,1.1511
15,3,77,197,4.2,0.57546,3.5162,2,1.6512,1,0.69232
15,3,78,198,4.2,0.47202,2.8878,2,1.604,1,1.1064
15,3,79,199,4.2,0.43848,2.6249,2,1.1832,0,1.0168
15,3,80,200,2.1,0.49895,1.5436,3,1.5631,0,0.65533
15,3,81,201,2.1,0.54626,1.7691,3,1.5554,1,1.3094
15,3,82,202,4.2,0.9081,2.6761,2,1.3481,0,0.62692
15,3,83,203,4.2,0.70394,2.8845,3,1.5141,1,1.0761
15,3,84,204,4.2,0.65153,2.9201,2,1.1906,1,0.96229
15,3,85,205,4.2,0.64986,2.544,2,1.5364,0,1.8189
15,3,86,206,2.1,0.79669,1.3559,3,3.1607,0,0.3349
15,3,87,207,4.2,0.62983,2.2452,2,1.2259,0,0.72621
15,3,88,208,4.2,0.75653,2.5881,3,2.5045,0,0.80545
15,3,89,209,2.1,0.88833,1.6228,2,2.0725,0,0.49501
15,3,90,210,4.2,0.5669,2.5824,3,1.5118,1,0.89046
16,3,1,121,4.2,0.48915,5.1793,2,0.95677,1,1.1146
16,3,2,122,4.2,0.95154,4.6448,2,0.79752,1,2.2182
16,3,3,123,4.2,1.8666,4.2585,1,2.3876,0,2.0036
16,3,4,124,4.2,0.42645,3.3525,2,1.2001,0,0.87558
16,3,5,125,2.1,0.55636,2.3566,2,0.44561,0,1.1778
16,3,6,126,2.1,0.84966,2.2606,1,1.0834,0,1.3703
16,3,7,127,2.1,0.36062,2.5927,3,1.456,0,1.4245
16,3,8,128,2.1,0.29938,3.1567,2,1.4852,1,0.50169
16,3,9,129,2.1,0.81522,3.269,2,1.4967,1,2.655
16,3,10,130,2.1,0.68794,4.1137,2,0.68944,1,1.0748
16,3,11,131,2.1,0.9689,3.0868,2,1.393,1,1.3402
16,3,12,132,4.2,1.4132,3.4884,2,0.45084,0,1.142
16,3,13,133,4.2,0.43683,4.1936,3,1.0438,1,1.1338
16,3,14,134,2.1,0.58744,5.4741,1,1.0625,1,0.45517
16,3,15,135,4.2,1.2881,5.0242,2,0.96829,0,1.0045
16,3,16,136,4.2,0.5959,4.6575,2,1.4809,0,3.8006
16,3,17,137,2.1,0.68087,3.299,2,1.1175,0,1.8277
16,3,18,138,4.2,0.8816,3.5238,2,1.3312,1,0.36161
16,3,19,139,2.1,0.53859,3.9316,2,1.3151,1,1.3282
16,3,20,140,2.1,3.5777,3.7044,1,0.56917,0,0.75981
16,3,21,141,2.1,1.1525,4.2386,2,1.0236,1,0.4666
16,3,22,142,2.1,0.35645,2.5726,2,0.68608,0,1.5025
16,3,23,143,4.2,0.41245,4.5132,2,1.1114,1,0.47096
16,3,24,144,2.1,0.52115,4.051,2,1.1719,1,0.59223
16,3,25,145,2.1,0.49166,2.2148,2,2.0468,0,0.43011
16,3,26,146,2.1,0.71507,2.1238,2,1.0882,0,0.31949
16,3,27,147,2.1,0.67093,2.3535,2,0.82599,0,1.3815
16,3,28,148,4.2,0.53117,3.5873,2,1.0647,0,1.7383
16,3,29,149,2.1,0.48473,2.0638,3,1.4615,0,0.38237
16,3,30,150,4.2,0.31281,3.4509,2,1.03,0,0.64085
16,3,31,151,4.2,0.3869,3.8326,2,1.1306,0,0.73668
16,3,32,152,4.2,0.38877,3.1072,3,0.96616,0,0.45081
16,3,33,153,2.1,0.68678,2.384,2,1.0809,1,0.9054
16,3,34,154,2.1,0.47386,3.7823,3,1.235,0,2.3964
16,3,35,155,2.1,1.8777,7.3814,1,1.7199,1,0.94151
16,3,36,156,2.1,0.5988,1.9884,2,0.94277,0,0.6686
16,3,37,157,4.2,0.76298,4.8333,2,1.1699,1,0.59725
16,3,38,158,2.1,0.67839,3.1611,2,0.55379,1,0.76034
16,3,39,159,2.1,7.2641,2.5533,2,1.4498,0,0.78642
16,3,40,160,4.2,1.2885,2.2966,2,0.56508,0,0.56402
16,3,41,161,4.2,0.33806,4.3866,2,1.0226,0,0.88114
16,3,42,162,4.2,0.66353,3.9878,3,1.3766,1,1.8605
16,3,43,163,4.2,0.35113,5.9429,2,1.176,1,0.4839
16,3,44,164,4.2,0.44783,3.7722,2,1.2974,1,0.66476
16,3,45,165,4.2,3.0025,4.4723,2,0.63153,0,0.63556
16,3,46,166,2.1,0.57758,3.225,3,0.4847,0,0.30428
16,3,47,167,2.1,2.6489,3.1988,3,0.58095,0,0.37969
16,3,48,168,4.2,0.59003,4.1553,2,0.77648,1,0.45399
16,3,49,169,2.1,0.68057,2.8678,2,0.9113,0,0.35152
16,3,50,170,4.2,0.32618,4.0639,2,1.465,1,0.60044
16,3,51,171,4.2,0.37817,5.1775,2,0.93004,1,0.41666
16,3,52,172,4.2,0.57234,3.8513,3,1.0615,1,0.9186
16,3,53,173,2.1,0.6571,2.1889,3,1.1818,0,2.1537
16,3,54,174,4.2,0.43104,4.5567,1,1.345,1,1.2056
16,3,55,175,2.1,4.3238,3.0121,1,1.0881,0,1.0252
16,3,56,176,2.1,0.50094,2.3511,3,0.89881,0,0.49719
16,3,57,177,2.1,0.48589,3.3915,3,1.134,1,0.53936
16,3,58,178,2.1,0.21603,2.4143,1,1.2436,0,0.86935
16,3,59,179,4.2,0.53465,4.9034,3,0.69089,1,0.46867
16,3,60,180,2.1,0.47037,3.6006,1,0.8774,1,0.87902
16,3,61,181,2.1,1.4168,2.3091,3,1.3202,0,0.94318
16,3,62,182,4.2,0.28877,4.4207,3,1.0532,1,0.79814
16,3,63,183,4.2,0.34947,3.709,3,1.126,1,0.86055
16,3,64,184,4.2,0.92826,3.9931,3,1.0674,1,0.74837
16,3,65,185,2.1,0.57998,2.3948,3,1.7562,0,0.85569
16,3,66,186,4.2,0.37477,4.7573,2,2.0324,1,0.66476
16,3,67,187,4.2,0.29639,3.4436,3,1.047,1,0.60991
16,3,68,188,4.2,0.52268,3.9075,3,1.7786,1,1.8296
16,3,69,189,4.2,2.0886,3.1192,1,1.1429,0,0.36491
16,3,70,190,4.2,0.90515,3.851,2,1.0765,1,0.94105
16,3,71,191,4.2,0.32244,4.1962,2,1.0708,0,1.401
16,3,72,192,4.2,0.46709,3.7418,2,0.81197,1,0.777
16,3,73,193,4.2,2.0371,8.5976,2,2.2355,1,0.89122
16,3,74,194,4.2,0.37401,3.9025,3,1.0615,0,1.2138
16,3,75,195,2.1,0.67736,3.3668,3,0.7746,0,1.2205
16,3,76,196,2.1,0.98049,3.1789,2,1.4097,0,0.85202
16,3,77,197,4.2,0.37952,4.3385,2,1.0227,1,0.50616
16,3,78,198,2.1,0.46857,1.6411,1,6.5375,1,0.98397
16,3,79,199,2.1,0.50777,2.1983,3,1.3338,0,0.39596
16,3,80,200,2.1,0.60563,3.5156,2,1.2119,1,0.88704
16,3,81,201,2.1,1.0217,4.5618,2,1.8768,1,0.77898
16,3,82,202,4.2,0.86532,6.6287,3,1.056,1,0.42564
16,3,83,203,2.1,1.1255,2.3343,3,0.57592,0,0.97415
16,3,84,204,4.2,0.49555,3.834,2,2.0842,0,1.2579
16,3,85,205,2.1,1.7732,2.9447,1,0.42506,0,1.0781
16,3,86,206,4.2,0.98366,3.9498,3,1.0659,1,1.012
16,3,87,207,4.2,0.3087,3.6323,2,1.1786,0,2.1194
16,3,88,208,2.1,0.68971,2.8678,2,0.97588,1,1.701
16,3,89,209,4.2,0.36634,3.8141,3,0.79408,1,1.5028
16,3,90,210,2.1,0.53055,3.2044,3,1.3853,0,0.86886
17,3,1,121,4.2,0.55913,3.5225,2,0.62051,1,1.7512
17,3,2,122,4.2,0.90928,4.4113,2,0.94954,0,0.56415
17,3,3,123,2.1,1.5316,1.4116,2,0.91823,0,0.69155
17,3,4,124,4.2,1.0786,5.5946,2,1.2041,1,1.918
17,3,5,125,2.1,0.61088,2.2426,1,1.7184,0,0.30575
17,3,6,126,4.2,0.68513,3.3243,2,1.3415,0,0.31368
17,3,7,127,2.1,0.60993,3.5917,1,0.8255,1,0.64007
17,3,8,128,4.2,0.62756,1.5336,1,0.32851,1,0.24644
17,3,9,129,4.2,0.29824,3.5231,2,0.98172,0,0.24845
17,3,10,130,4.2,1.4774,2.9383,2,1.0254,0,0.923
17,3,11,131,2.1,0.57848,1.4219,2,1.0086,1,0.70856
17,3,12,132,4.2,0.45952,3.9627,3,0.7499,1,0.86976
17,3,13,133,4.2,0.47872,3.4022,2,0.75195,1,0.63472
17,3,14,134,2.1,0.56579,1.7184,2,0.75677,0,0.50509
17,3,15,135,2.1,0.89007,2.7771,3,1.0539,1,0.49013
17,3,16,136,4.2,0.6009,4.663,2,0.92681,0,0.56475
17,3,17,137,4.2,0.46836,4.6068,2,0.40496,1,0.4704
17,3,18,138,2.1,0.5609,1.4437,2,0.62992,1,0.39458
17,3,19,139,4.2,0.34239,2.725,2,0.59172,0,0.31478
17,3,20,140,2.1,0.53816,2.1915,2,0.27803,1,0.15702
17,3,21,141,2.1,0.30726,2.3743,2,0.34417,0,0.29018
17,3,22,142,2.1,0.3352,2.5836,2,0.35807,1,0.34972
17,3,23,143,4.2,0.54283,3.8587,2,0.45518,0,0.45978
17,3,24,144,2.1,0.75707,2.4301,3,0.33255,1,0.40816
17,3,25,145,4.2,1.271,3.584,3,0.42313,0,0.20189
17,3,26,146,2.1,0.44611,3.2009,2,0.40246,1,0.24248
17,3,27,147,2.1,0.77021,1.9873,3,0.65504,1,0.2014
17,3,28,148,4.2,0.45939,4.1529,1,0.58223,1,1.0716
17,3,29,149,4.2,0.34467,4.1897,2,1.7771,1,1.4175
17,3,30,150,4.2,0.89982,3.5136,2,0.31184,1,0.24829
17,3,31,151,4.2,0.74626,3.9089,2,0.44212,1,0.7106
17,3,32,152,4.2,1.0692,6.3389,2,0.95435,1,1.3568
17,3,33,153,4.2,0.92574,3.8258,3,0.51033,0,0.65637
17,3,34,154,2.1,1.2503,2.961,2,0.56968,0,1.189
17,3,35,155,2.1,0.52534,1.6548,2,2.1429,0,1.2012
17,3,36,156,2.1,0.92701,3.9266,2,0.55684,1,0.5734
17,3,37,157,2.1,0.91208,2.5121,2,0.65253,0,0.48912
17,3,38,158,2.1,0.75438,1.9662,2,0.82,1,0.52489
17,3,39,159,2.1,0.49821,3.6417,2,1.9152,1,0.43861
17,3,40,160,2.1,0.38759,1.382,2,0.93407,0,0.62153
17,3,41,161,4.2,1.3009,5.3468,2,0.92694,1,0.76585
17,3,42,162,4.2,0.94115,5.0841,2,0.52664,0,0.25012
17,3,43,163,2.1,0.57528,3.0613,1,0.35629,1,1.1366
17,3,44,164,2.1,2.6051,3.0743,1,1.3889,1,0.20867
17,3,45,165,4.2,1.3188,3.9182,2,1.4251,0,0.65157
17,3,46,166,2.1,3.5509,2.6565,2,0.40948,0,0.7114
17,3,47,167,4.2,0.41905,5.3407,2,1.0659,1,0.26015
17,3,48,168,4.2,0.71766,3.098,3,0.74231,1,1.6208
17,3,49,169,2.1,0.48235,2.5743,2,0.37655,1,0.93766
17,3,50,170,2.1,0.61771,2.9184,2,0.85433,0,1.087
17,3,51,171,2.1,0.7518,2.2559,2,0.71282,1,0.29229
17,3,52,172,4.2,1.6796,4.2533,1,0.65042,1,0.56691
17,3,53,173,4.2,0.7828,4.2449,1,0.91563,0,0.35026
17,3,54,174,2.1,0.8938,2.8139,1,0.67573,1,0.55218
17,3,55,175,2.1,0.3856,1.6946,2,0.64696,0,0.63176
17,3,56,176,4.2,0.40852,4.7258,1,1.5655,1,1.1693
17,3,57,177,2.1,0.69771,2.2787,2,0.66361,1,0.55293
17,3,58,178,2.1,0.51402,1.109,1,0.8219,0,0.22136
17,3,59,179,2.1,0.65935,1.3859,3,0.80162,0,0.79296
17,3,60,180,2.1,0.92206,1.7974,2,0.65051,1,0.55517
17,3,61,181,2.1,0.53152,1.324,2,0.63896,0,0.75257
17,3,62,182,4.2,0.62363,2.8917,2,0.87143,1,0.33351
17,3,63,183,2.1,0.67225,1.2691,3,1.613,0,0.51005
17,3,64,184,4.2,0.85472,3.7992,1,0.24687,0,0.57508
17,3,65,185,4.2,0.51103,5.0883,1,0.58454,0,0.92933
17,3,66,186,4.2,1.6286,5.3891,3,0.49711,0,0.2713
17,3,67,187,4.2,0.51501,2.0837,2,0.51787,1,0.86026
17,3,68,188,2.1,0.56443,1.9533,2,0.89248,1,0.29286
17,3,69,189,4.2,0.60303,4.3385,3,1.3692,1,0.31946
17,3,70,190,4.2,0.47549,0.97897,1,0.36005,0,0.30753
17,3,71,191,4.2,0.61212,3.8071,3,0.75521,1,0.18853
17,3,72,192,2.1,0.43334,1.9611,2,1.0908,0,0.1911
17,3,73,193,4.2,1.1628,2.9182,3,4.6105,0,0.48693
17,3,74,194,4.2,0.35736,5.3668,3,0.43463,1,0.43241
17,3,75,195,2.1,0.55797,2.3191,2,0.27105,0,0.36961
17,3,76,196,4.2,0.55343,2.9445,2,1.0539,0,0.47865
17,3,77,197,2.1,0.44553,2.8402,3,0.87044,0,0.7723
17,3,78,198,4.2,1.1565,4.2156,1,0.62746,1,0.6785
17,3,79,199,4.2,5.3505,2.3482,2,1.6947,1,0.39423
17,3,80,200,2.1,0.69042,2.1945,1,1.0333,0,0.59895
17,3,81,201,2.1,0.523,3.4752,2,0.64477,1,0.69641
17,3,82,202,4.2,3.332,5.8962,3,0.68721,0,0.71577
17,3,83,203,2.1,0.65179,3.1109,2,0.71577,1,0.66713
17,3,84,204,2.1,0.76632,2.1296,2,0.43898,0,0.44966
17,3,85,205,4.2,0.63906,4.2731,3,0.53962,1,1.8778
17,3,86,206,2.1,0.54062,3.7918,3,0.72227,0,0.67247
17,3,87,207,4.2,0.44647,4.0684,2,1.2661,0,0.48517
17,3,88,208,4.2,0.72118,4.1487,3,1.2687,1,0.73446
17,3,89,209,2.1,0.70442,2.0116,2,1.0233,0,0.67383
17,3,90,210,2.1,0.55209,3.8204,2,0.94196,1,0.65287
18,3,1,121,2.1,0.69433,3.0757,2,2.2999,0,1.5066
18,3,2,122,2.1,0.3813,1.9378,3,0.7255,0,3.016
18,3,3,123,2.1,0.37067,2.113,3,1.1255,1,0.52886
18,3,4,124,2.1,0.39677,1.7514,3,1.0024,1,0.42249
18,3,5,125,2.1,0.591,2.8579,2,1.4227,0,1.5709
18,3,6,126,4.2,0.76551,4.8393,2,1.0108,1,1.1715
18,3,7,127,4.2,0.91812,4.9323,2,0.89482,0,2.4224
18,3,8,128,4.2,0.27321,4.3441,2,0.82427,0,2.7108
18,3,9,129,2.1,0.29231,2.1618,3,0.88458,1,0.55537
18,3,10,130,4.2,0.28341,4.3696,3,0.93434,1,0.35393
18,3,11,131,2.1,0.31968,1.7406,3,0.82876,1,0.47204
18,3,12,132,2.1,0.69834,2.8033,3,0.98015,1,0.30304
18,3,13,133,4.2,0.32839,4.133,3,0.96609,0,0.64355
18,3,14,134,2.1,0.30372,1.6629,3,1.2228,1,0.4696
18,3,15,135,2.1,0.27014,2.4264,2,0.99898,1,1.1715
18,3,16,136,4.2,0.30495,4.5774,2,1.0831,1,0.53018
18,3,17,137,2.1,0.36947,2.5162,2,1.1463,1,0.49368
18,3,18,138,2.1,0.31469,2.5119,2,1.8431,0,0.93247
18,3,19,139,4.2,0.42159,3.7442,2,2.3795,0,1.2138
18,3,20,140,4.2,0.42421,4.3877,2,2.9903,0,1.2856
18,3,21,141,4.2,0.58846,6.2091,1,1.7176,1,1.3066
18,3,22,142,4.2,0.28971,4.0055,2,1.0688,1,0.80315
18,3,23,143,4.2,0.29516,3.279,3,1.347,1,0.56227
18,3,24,144,4.2,0.30871,4.8834,2,1.2016,1,1.0047
18,3,25,145,4.2,1.088,5.8802,2,0.68779,1,1.3357
18,3,26,146,2.1,0.33016,1.4868,3,0.83738,1,0.42256
18,3,27,147,4.2,0.2646,4.2897,3,1.0462,1,0.81951
18,3,28,148,4.2,0.25422,4.8576,2,1.0335,0,1.3196
18,3,29,149,4.2,0.31048,4.7748,2,0.89876,1,0.43002
18,3,30,150,2.1,0.32711,2.1536,2,2.0841,0,1.7208
18,3,31,151,2.1,0.30161,1.7499,3,0.75468,1,0.68367
18,3,32,152,4.2,0.28773,4.2852,1,1.4276,0,2.061
18,3,33,153,2.1,0.31201,3.0556,2,1.3288,1,1.2641
18,3,34,154,4.2,0.30419,4.7792,2,1.545,1,2.9476
18,3,35,155,2.1,0.65517,2.2595,2,1.1121,1,0.99284
18,3,36,156,2.1,0.33049,2.4322,3,1.4817,1,0.94508
18,3,37,157,4.2,0.27982,4.6316,2,1.0191,1,0.88285
18,3,38,158,4.2,0.25213,3.3708,2,1.3263,0,0.84445
18,3,39,159,2.1,0.32646,2.254,3,0.82317,1,0.74111
18,3,40,160,2.1,0.25802,2.4546,3,0.79034,1,0.32582
18,3,41,161,4.2,0.26317,4.9854,2,0.94326,1,0.43934
18,3,42,162,2.1,0.35794,2.8827,2,1.1887,0,0.97513
18,3,43,163,4.2,0.27806,3.7625,2,1.0322,1,0.53004
18,3,44,164,4.2,0.27262,4.2421,2,1.3067,1,0.7053
18,3,45,165,4.2,0.28726,3.7321,2,1.0903,1,0.53827
18,3,46,166,4.2,0.27428,4.951,2,0.90803,1,0.57356
18,3,47,167,2.1,0.53658,2.1109,3,1.0902,0,1.2359
18,3,48,168,4.2,0.28149,4.2098,2,1.0606,1,0.5315
18,3,49,169,4.2,0.25035,5.1473,2,0.99401,1,0.39508
18,3,50,170,2.1,0.26963,2.9445,2,1.0549,1,0.45733
18,3,51,171,4.2,0.41927,4.5749,2,1.2504,0,3.1962
18,3,52,172,4.2,0.35356,5.6002,2,0.77052,0,0.95254
18,3,53,173,4.2,0.49945,5.3358,2,1.2916,1,3.5543
18,3,54,174,4.2,0.27682,5.1565,2,1.3579,1,0.89887
18,3,55,175,2.1,0.33367,1.6031,3,0.93735,1,0.35593
18,3,56,176,4.2,0.2725,4.4555,3,0.97681,1,0.46245
18,3,57,177,4.2,0.25003,5.0456,2,0.90233,1,0.32007
18,3,58,178,4.2,0.26473,3.6817,2,1.1127,0,1.2022
18,3,59,179,2.1,0.49128,1.7674,3,0.66485,1,0.92447
18,3,60,180,4.2,0.41973,5.3633,3,1.4091,1,1.2484
18,3,61,181,4.2,0.36206,3.5166,3,0.97821,1,0.53778
18,3,62,182,4.2,0.2779,4.6287,2,1.0055,1,1.3916
18,3,63,183,4.2,0.2761,5.0088,2,0.43901,1,0.26911
18,3,64,184,4.2,0.43403,3.6845,2,0.67639,0,0.91373
18,3,65,185,4.2,0.29053,5.1193,1,0.46058,1,1.1622
18,3,66,186,2.1,0.60586,3.8024,2,1.1888,1,1.245
18,3,67,187,2.1,0.29453,2.2434,3,0.94226,0,1.4297
18,3,68,188,4.2,0.24681,5.425,3,1.1116,0,2.8939
18,3,69,189,2.1,0.60371,2.3033,2,1.4419,1,1.8105
18,3,70,190,2.1,0.4086,2.6234,3,0.99523,1,0.92707
18,3,71,191,2.1,0.33492,2.2895,3,1.2203,0,0.095962
18,3,72,192,2.1,0.35958,3.1518,3,0.97805,0,0.38586
18,3,73,193,4.2,0.28584,5.7221,3,1.0907,1,0.75178
18,3,74,194,2.1,0.41619,2.6817,2,0.90185,1,0.74686
18,3,75,195,2.1,0.27954,3.056,2,0.42955,1,0.99028
18,3,76,196,2.1,0.31467,2.5557,3,1.95,0,1.7894
18,3,77,197,2.1,0.35948,3.1515,2,1.0901,1,0.44881
18,3,78,198,4.2,0.34174,5.3554,2,1.3291,0,1.9605
18,3,79,199,2.1,0.36,2.2759,3,0.93087,1,0.39462
18,3,80,200,2.1,0.28868,2.6986,3,0.90775,0,1.1801
18,3,81,201,2.1,0.31235,2.1559,3,1.1857,1,0.35311
18,3,82,202,2.1,0.24491,2.6719,3,0.86894,1,0.46636
18,3,83,203,2.1,0.25796,2.532,3,1.0098,0,0.9574
18,3,84,204,2.1,0.24083,2.7696,3,0.88903,1,0.3795
18,3,85,205,2.1,0.25423,3.2047,3,0.92336,1,0.35805
18,3,86,206,2.1,0.22782,2.8745,2,2.412,0,0.27001
18,3,87,207,4.2,0.24765,4.1429,2,1.0159,0,0.36088
18,3,88,208,2.1,0.30919,2.488,3,1.0509,0,0.54259
18,3,89,209,4.2,0.27016,5.0275,2,1.3853,0,2.8385
18,3,90,210,2.1,0.31719,3.7627,2,1.2895,1,1.3361
19,3,1,121,2.1,0.46298,1.5642,3,1.0114,1,1.1502
19,3,2,122,4.2,0.53146,3.4893,3,1.7675,0,2.0382
19,3,3,123,2.1,0.86256,1.4224,3,4.3049,0,6.4052
19,3,4,124,4.2,0.40816,2.9599,3,1.6279,1,1.6754
19,3,5,125,4.2,0.84838,2.6233,2,1.5912,0,1.2805
19,3,6,126,4.2,0.80502,3.1363,3,3.9473,0,2.3261
19,3,7,127,4.2,2.9984,2.9258,2,3.9207,0,1.1688
19,3,8,128,4.2,1.588,3.1787,2,1.7516,1,0.72144
19,3,9,129,4.2,0.37875,3.4258,2,2.0976,0,1.8702
19,3,10,130,4.2,0.46904,3.0439,3,4.4396,0,6.1188
19,3,11,131,2.1,0.64747,1.8021,2,1.2167,1,1.1719
19,3,12,132,4.2,0.61722,2.1748,2,0.75006,1,0.87103
19,3,13,133,2.1,0.47458,2.4312,2,1.2721,1,1.5491
19,3,14,134,4.2,0.38478,5.8334,1,0.75906,1,1.092
19,3,15,135,2.1,0.63046,2.661,2,0.7061,1,0.68514
19,3,16,136,2.1,1.2783,1.9704,2,0.49915,1,0.64453
19,3,17,137,2.1,0.60483,1.3586,3,1.1242,1,1.6087
19,3,18,138,2.1,0.51552,2.3774,2,1.4943,1,0.82181
19,3,19,139,2.1,1.8703,1.7466,1,0.32427,0,1.1711
19,3,20,140,4.2,0.62896,2.6029,2,0.72168,1,1.708
19,3,21,141,2.1,0.54493,1.5904,2,1.3468,1,0.3134
19,3,22,142,4.2,0.70351,3.1794,3,2.2363,0,2.9622
19,3,23,143,2.1,0.66758,2.3795,2,1.383,1,0.37384
19,3,24,144,2.1,0.62122,2.6973,2,1.462,1,1.9934
19,3,25,145,4.2,1.9257,4.6215,2,5.2391,1,0.94592
19,3,26,146,2.1,2.3277,2.1024,3,1.4303,1,0.77484
19,3,27,147,4.2,0.57994,3.9326,3,1.3939,1,0.65236
19,3,28,148,2.1,0.8999,1.612,3,2.1568,1,2.481
19,3,29,149,2.1,0.46622,1.5903,2,1.3813,1,0.67388
19,3,30,150,4.2,0.61177,3.6604,3,1.9183,1,2.9036
19,3,31,151,2.1,0.40904,1.5305,2,1.4292,0,0.27259
19,3,32,152,2.1,0.37459,1.7899,2,0.83998,0,0.79665
19,3,33,153,2.1,0.48014,2.1109,3,1.2027,1,1.5129
19,3,34,154,2.1,0.97074,1.4583,3,0.94419,0,0.64299
19,3,35,155,2.1,0.40222,1.9869,3,0.75656,1,0.21357
19,3,36,156,2.1,0.76005,1.9579,2,1.1799,0,1.2693
19,3,37,157,4.2,0.5009,4.1792,1,1.7153,1,0.20263
19,3,38,158,2.1,0.68535,1.9746,3,1.3231,0,0.89724
19,3,39,159,4.2,0.60834,3.1628,2,1.3815,1,0.282
19,3,40,160,2.1,0.68782,2.0339,3,1.6538,1,2.2314
19,3,41,161,2.1,0.54953,2.4122,3,2.9911,0,1.783
19,3,42,162,2.1,0.62827,2.0623,3,1.7437,0,1.7226
19,3,43,163,2.1,1.9858,2.3761,3,1.3352,0,1.1062
19,3,44,164,4.2,0.59843,2.0948,3,1.1913,0,0.97788
19,3,45,165,4.2,0.47792,2.8737,3,2.434,0,1.1918
19,3,46,166,2.1,1.1875,1.7393,3,2.0877,0,2.0741
19,3,47,167,4.2,0.54601,3.2459,3,2.5625,0,1.0672
19,3,48,168,4.2,0.38852,3.621,2,1.7435,1,1.1799
19,3,49,169,4.2,0.57495,3.68,3,1.504,0,1.2098
19,3,50,170,4.2,0.58888,2.9342,3,0.95424,1,0.9527
19,3,51,171,4.2,0.54248,4.4901,1,1.0685,1,1.6237
19,3,52,172,4.2,0.42714,4.538,3,3.1696,1,2.4625
19,3,53,173,2.1,0.9985,0.79408,1,2.7209,0,0.17085
19,3,54,174,4.2,0.99842,4.0453,3,4.6411,1,2.2164
19,3,55,175,4.2,0.73779,3.4504,1,1.8801,1,0.35115
19,3,56,176,2.1,1.7699,3.166,2,0.65912,1,1.1479
19,3,57,177,4.2,0.58868,2.8444,3,3.3715,0,0.72032
19,3,58,178,2.1,3.1623,2.8439,2,1.1559,1,0.47032
19,3,59,179,4.2,0.51189,4.2238,2,1.0696,1,0.46682
19,3,60,180,4.2,0.5418,6.7395,1,1.0328,1,0.22694
19,3,61,181,4.2,0.71109,3.6936,2,1.5351,1,0.35195
19,3,62,182,4.2,1.2974,5.2479,2,1.7028,1,0.28489
19,3,63,183,4.2,1.386,2.8394,3,1.1736,1,0.32405
19,3,64,184,2.1,1.1783,0.90076,1,3.2119,0,0.17738
19,3,65,185,4.2,0.50972,3.0625,2,1.3262,1,0.67529
19,3,66,186,4.2,0.35103,3.5045,3,1.2926,1,0.26995
19,3,67,187,4.2,5.4515,1.7977,2,1.2013,0,0.31875
19,3,68,188,2.1,0.45996,1.68,1,3.2943,0,0.24309
19,3,69,189,2.1,1.5339,2.1502,2,1.1027,1,1.1523
19,3,70,190,4.2,0.51272,4.1914,2,1.3736,1,5.622
19,3,71,191,2.1,0.50868,3.5009,2,1.5146,0,1.4058
19,3,72,192,4.2,0.51005,3.1639,3,2.3512,0,1.9565
19,3,73,193,2.1,0.46248,1.5358,2,0.99399,0,0.53052
19,3,74,194,2.1,0.45986,1.1502,2,1.2966,1,0.52746
19,3,75,195,4.2,0.53743,3.2031,3,3.521,1,2.9362
19,3,76,196,2.1,0.63528,1.2994,3,1.3738,0,1.2233
19,3,77,197,4.2,0.57456,3.1395,2,1.2849,1,0.60043
19,3,78,198,2.1,0.42594,1.2162,2,1.0606,0,0.6648
19,3,79,199,4.2,0.41421,3.5468,3,2.5067,0,2.22
19,3,80,200,4.2,0.54615,3.6291,3,1.1089,1,0.69762
19,3,81,201,2.1,0.47402,1.959,2,1.067,0,0.72253
19,3,82,202,2.1,0.80016,1.4771,2,1.0009,0,0.55494
19,3,83,203,2.1,1.3367,2.3465,1,1.4499,1,0.50893
19,3,84,204,2.1,0.63483,1.9629,1,0.91838,1,0.25189
19,3,85,205,4.2,0.56501,3.1189,2,2.0913,1,2.1787
19,3,86,206,2.1,0.75063,1.1862,2,0.9504,1,0.19473
19,3,87,207,4.2,0.4308,3.6234,2,2.2074,0,2.8418
19,3,88,208,4.2,0.78136,4.2602,3,3.3213,1,1.4192
19,3,89,209,2.1,0.57502,1.127,2,0.94627,0,0.88821
19,3,90,210,2.1,0.44414,1.4547,3,0.7716,0,0.54834
20,3,1,121,2.1,0.44525,1.569,2,0.46471,1,1.2295
20,3,2,122,4.2,0.56563,4.6047,2,0.3685,1,0.8284
20,3,3,123,4.2,0.55262,4.1122,2,0.35433,0,0.54883
20,3,4,124,4.2,0.54662,4.9896,2,1.1228,0,2.7192
20,3,5,125,2.1,1.1241,2.237,2,0.53094,0,0.94701
20,3,6,126,4.2,0.63879,4.0041,2,0.82986,0,0.65253
20,3,7,127,2.1,0.84027,2.2375,2,0.49933,0,0.68933
20,3,8,128,2.1,0.87811,3.3444,2,0.79349,1,0.4756
20,3,9,129,4.2,0.95472,5.6885,2,0.60798,1,1.0572
20,3,10,130,2.1,0.61097,2.4224,2,0.44342,0,0.80175
20,3,11,131,4.2,1.0751,3.69,2,0.60904,0,0.45195
20,3,12,132,2.1,0.53031,2.6292,2,0.40326,0,0.32256
20,3,13,133,2.1,0.91075,2.6239,2,1.8836,0,0.48451
20,3,14,134,2.1,1.1699,2.5026,2,0.8,1,0.64454
20,3,15,135,2.1,0.63045,3.3138,2,0.77473,1,0.37201
20,3,16,136,4.2,1.0891,4.8688,2,0.61649,1,0.8597
20,3,17,137,2.1,0.66129,2.7939,2,0.42429,0,0.46133
20,3,18,138,4.2,0.94683,3.6837,2,0.60712,0,0.52969
20,3,19,139,2.1,6.2109,2.9396,1,0.67855,1,1.2253
20,3,20,140,4.2,0.68834,4.4313,1,0.91807,0,0.78083
20,3,21,141,2.1,0.7172,2.4573,1,0.36555,0,0.99364
20,3,22,142,4.2,1.0875,4.789,2,0.39022,1,0.78763
20,3,23,143,2.1,0.76857,2.1434,2,0.43745,0,0.32317
20,3,24,144,2.1,0.56235,2.436,2,0.63038,0,0.33855
20,3,25,145,4.2,0.57354,4.3298,2,0.44522,0,0.3039
20,3,26,146,2.1,0.54426,0.38566,1,1.7742,0,0.50206
20,3,27,147,2.1,0.82772,2.119,2,0.79994,0,0.45337
20,3,28,148,2.1,0.63071,2.2913,2,0.78321,0,0.29487
20,3,29,149,4.2,0.46264,3.5383,2,0.3828,1,0.89327
20,3,30,150,4.2,0.63468,4.4594,2,0.4975,0,0.74437
20,3,31,151,2.1,0.48192,1.6461,2,1.0203,0,0.79373
20,3,32,152,2.1,0.40183,1.9186,2,1.0266,1,0.34996
20,3,33,153,4.2,0.62534,3.2532,2,0.44899,0,0.86986
20,3,34,154,4.2,0.46345,4.0456,2,0.8159,0,0.3182
20,3,35,155,2.1,0.65723,2.8237,2,0.43269,0,0.2846
20,3,36,156,4.2,0.55937,5.2439,2,0.65394,0,0.33368
20,3,37,157,2.1,0.68158,2.78,2,0.4161,1,0.27423
20,3,38,158,4.2,0.5122,4.0226,2,0.87595,1,0.29272
20,3,39,159,4.2,0.59945,3.627,2,0.40956,0,0.49868
20,3,40,160,2.1,0.60378,1.9879,2,0.30707,0,0.31599
20,3,41,161,4.2,0.62578,5.3673,2,0.31195,0,0.30406
20,3,42,162,4.2,1.4046,4.1244,2,0.35006,0,0.30849
20,3,43,163,4.2,1.671,4.7078,2,1.4171,1,0.76726
20,3,44,164,4.2,0.81203,4.0541,2,0.42519,1,1.0702
20,3,45,165,2.1,0.48267,2.1179,2,0.28147,0,0.25117
20,3,46,166,4.2,0.67925,4.4829,2,1.2231,0,0.33569
20,3,47,167,4.2,0.53799,4.2269,2,0.32978,0,0.27136
20,3,48,168,2.1,0.44599,2.3463,2,0.41553,0,1.9842
20,3,49,169,4.2,1.3736,3.9354,2,0.41241,0,0.25859
20,3,50,170,2.1,0.4738,2.6658,2,0.41266,0,0.29314
20,3,51,171,2.1,0.73407,1.8151,2,0.23571,1,0.25413
20,3,52,172,4.2,0.74032,4.737,2,0.3251,1,0.29595
20,3,53,173,2.1,0.61318,2.3004,2,0.25846,1,0.33992
20,3,54,174,4.2,0.48064,4.1304,2,0.55862,0,0.52959
20,3,55,175,4.2,0.52941,4.247,2,0.33222,0,0.29718
20,3,56,176,2.1,0.98726,3.4722,1,2.2623,0,0.3827
20,3,57,177,4.2,0.65361,4.8676,1,0.49205,1,0.73349
20,3,58,178,2.1,0.4787,2.1313,1,1.3708,1,1.3552
20,3,59,179,4.2,0.4818,3.6593,2,2.3548,0,0.43167
20,3,60,180,4.2,0.84063,5.3091,2,0.47186,0,0.34659
20,3,61,181,4.2,0.5593,4.3775,2,1.107,0,0.30205
20,3,62,182,2.1,1.4402,3.1248,2,0.30782,0,0.53998
20,3,63,183,4.2,1.5322,6.2168,2,0.38643,1,0.85115
20,3,64,184,4.2,1.1302,4.067,2,0.61807,0,0.45542
20,3,65,185,2.1,1.1587,3.9156,2,1.5962,0,0.33984
20,3,66,186,2.1,0.55564,2.5188,2,0.36064,0,0.28028
20,3,67,187,4.2,1.0393,5.1154,2,0.25311,0,0.3231
20,3,68,188,2.1,0.85061,6.1357,1,1.3461,1,1.5214
20,3,69,189,2.1,0.35519,2.2823,2,0.3246,1,1.1599
20,3,70,190,2.1,0.4341,2.2674,2,0.27989,0,0.22634
20,3,71,191,4.2,0.52546,3.1628,2,0.31352,0,0.28323
20,3,72,192,2.1,0.49325,2.254,2,0.49797,0,0.20466
20,3,73,193,4.2,0.59855,3.0632,2,0.63972,0,0.20148
20,3,74,194,2.1,0.47085,2.0233,2,0.23061,0,0.21613
20,3,75,195,4.2,0.68118,2.9042,2,0.41744,0,0.23012
20,3,76,196,4.2,0.51247,3.3247,2,0.47718,0,0.24457
20,3,77,197,2.1,0.56385,1.9309,2,0.23299,0,0.20827
20,3,78,198,2.1,0.56051,2.2873,2,0.46409,0,0.8001
20,3,79,199,2.1,0.45666,2.486,2,0.60857,0,0.19214
20,3,80,200,2.1,0.60914,3.6692,2,6.2421,0,0.39324
20,3,81,201,2.1,0.45135,1.6484,2,0.55018,0,0.1738
20,3,82,202,2.1,0.56549,1.6119,2,0.25482,0,0.42587
20,3,83,203,2.1,0.33525,2.1664,2,0.23586,0,1.3347
20,3,84,204,4.2,0.32506,2.6684,2,0.20278,0,0.25535
20,3,85,205,4.2,0.68079,4.1696,2,0.59764,1,0.32836
20,3,86,206,4.2,0.58055,3.4496,2,0.46104,1,0.24718
20,3,87,207,4.2,0.49932,3.7618,2,1.2105,1,0.40635
20,3,88,208,4.2,0.4518,3.1223,2,0.39632,0,0.92298
20,3,89,209,4.2,0.5257,2.9259,2,0.32219,0,0.25883
20,3,90,210,2.1,0.40253,1.6948,2,0.20968,0,0.22894
21,3,1,121,4.2,0.73587,3.7407,3,1.9698,1,1.1963
21,3,2,122,4.2,0.65556,4.0259,3,1.2752,1,1.5173
21,3,3,123,2.1,0.92259,1.7646,3,1.382,0,0.67571
21,3,4,124,2.1,0.44142,2.1728,3,0.52277,0,0.46026
21,3,5,125,4.2,0.31001,4.279,2,1.0179,1,0.915
21,3,6,126,2.1,0.50395,1.8975,3,2.2815,0,0.50862
21,3,7,127,4.2,0.54694,5.0015,2,0.68342,1,0.60055
21,3,8,128,4.2,0.27858,6.0028,1,0.986,1,1.0846
21,3,9,129,4.2,0.40588,4.3082,2,1.4174,0,1.2858
21,3,10,130,2.1,0.54797,1.8917,2,0.60552,0,2.0788
21,3,11,131,2.1,0.41148,2.4567,3,0.90508,0,1.0777
21,3,12,132,2.1,0.56952,2.3128,3,1.3611,1,1.1729
21,3,13,133,4.2,0.39511,4.4381,2,0.93006,1,1.1924
21,3,14,134,2.1,0.51062,1.9835,3,0.70827,0,1.6213
21,3,15,135,2.1,0.50211,2.3795,3,0.83866,0,1.494
21,3,16,136,4.2,0.43157,4.2104,2,1.3877,1,0.93856
21,3,17,137,2.1,0.66837,1.8387,3,0.61298,0,0.57509
21,3,18,138,2.1,0.4229,2.058,3,0.99831,1,2.0818
21,3,19,139,4.2,0.43947,4.2744,2,0.72152,1,0.81781
21,3,20,140,4.2,0.45132,5.2486,3,0.73604,1,1.5367
21,3,21,141,2.1,0.63871,2.4172,2,2.114,1,0.73421
21,3,22,142,4.2,0.39356,4.0315,2,2.0451,1,0.96831
21,3,23,143,2.1,0.58333,1.7709,2,1.2091,1,1.5635
21,3,24,144,2.1,0.68069,2.0774,3,0.5836,0,1.0285
21,3,25,145,2.1,0.36964,2.2914,3,0.71504,0,0.94717
21,3,26,146,2.1,0.42875,2.2667,3,0.92099,0,0.50304
21,3,27,147,2.1,0.36772,2.4025,2,1.5413,1,2.1917
21,3,28,148,4.2,0.33788,4.8809,2,0.68128,1,0.85574
21,3,29,149,4.2,0.38977,4.3423,2,0.66565,1,0.58773
21,3,30,150,2.1,0.69289,1.9823,3,1.2475,0,0.82159
21,3,31,151,4.2,0.38246,0.22943,1,7.1779,0,0.42774
21,3,32,152,2.1,0.54509,2.7168,3,1.921,0,1.0738
21,3,33,153,2.1,0.59147,2.172,3,1.4564,0,0.90789
21,3,34,154,4.2,0.29657,4.2766,3,0.47542,1,1.2063
21,3,35,155,2.1,1.3469,2.232,3,1.4598,1,0.82176
21,3,36,156,2.1,0.51374,1.7061,3,0.80532,0,0.57109
21,3,37,157,4.2,0.36231,4.056,3,1.1809,1,0.94445
21,3,38,158,4.2,0.34868,3.9969,3,0.82846,1,1.9788
21,3,39,159,2.1,0.45456,2.1699,2,1.1267,0,0.66442
21,3,40,160,2.1,0.32158,2.3273,3,0.48288,0,1.4202
21,3,41,161,4.2,0.4308,4.2438,3,1.4998,1,1.8685
21,3,42,162,4.2,0.42967,3.8885,3,2.2265,0,0.96544
21,3,43,163,4.2,0.45052,3.953,3,1.2121,0,1.5114
21,3,44,164,4.2,0.39399,3.7504,3,1.6435,1,1.1251
21,3,45,165,4.2,0.36968,6.6566,1,0.78482,1,1.355
21,3,46,166,4.2,0.61295,3.7189,3,1.3692,1,1.49
21,3,47,167,2.1,0.49224,3.5903,3,0.64345,1,1.3973
21,3,48,168,4.2,0.42779,3.8403,2,1.5316,0,0.67486
21,3,49,169,2.1,0.49603,1.9407,2,1.5485,0,0.65291
21,3,50,170,4.2,0.47272,5.1414,2,0.65003,1,0.45437
21,3,51,171,2.1,0.65385,2.2799,3,1.4694,0,0.7019
21,3,52,172,2.1,0.4241,2.2176,3,1.2364,0,0.86081
21,3,53,173,2.1,0.92337,3.4627,2,1.0208,1,0.69289
21,3,54,174,2.1,0.62354,2.5084,2,1.4806,0,1.2476
21,3,55,175,4.2,0.34346,5.3366,3,0.65173,1,2.0083
21,3,56,176,4.2,1.1155,5.0128,2,1.3206,1,0.46576
21,3,57,177,2.1,0.57142,1.91,2,1.5511,1,1.7135
21,3,58,178,2.1,0.51784,2.0304,3,0.7616,1,0.92118
21,3,59,179,2.1,0.529,2.6254,2,1.5493,1,0.9218
21,3,60,180,2.1,0.58605,2.6403,3,0.9941,1,2.1178
21,3,61,181,4.2,0.48216,3.6482,2,1.4057,1,0.60273
21,3,62,182,2.1,0.62495,1.2828,2,1.5435,0,0.4385
21,3,63,183,4.2,0.35454,3.5646,3,1.0219,1,1.4821
21,3,64,184,4.2,0.45755,4.468,2,1.202,1,0.55621
21,3,65,185,4.2,0.29963,4.11,2,1.4784,0,0.88964
21,3,66,186,2.1,0.54666,2.4016,3,0.95755,0,0.59569
21,3,67,187,2.1,0.42543,2.3974,3,2.0664,0,0.87728
21,3,68,188,4.2,0.55657,4.2067,3,1.3163,0,1.588
21,3,69,189,2.1,0.56799,2.1422,3,0.97584,1,0.5638
21,3,70,190,4.2,0.38904,4.1171,3,1.2247,1,1.0901
21,3,71,191,4.2,0.42413,4.1299,2,1.7276,1,1.5079
21,3,72,192,4.2,0.38574,4.3271,2,2.118,1,0.90172
21,3,73,193,2.1,0.85116,0.071902,1,2.4967,0,1.9916
21,3,74,194,4.2,0.41954,4.1812,2,1.5717,1,0.75987
21,3,75,195,4.2,0.41891,4.0018,3,0.96283,1,0.76331
21,3,76,196,4.2,0.92114,4.5409,2,1.2039,1,0.67025
21,3,77,197,2.1,0.9427,2.2288,3,1.0238,1,1.1011
21,3,78,198,2.1,0.36723,2.3338,3,1.3486,1,0.7317
21,3,79,199,2.1,0.43413,2.8509,2,1.2141,0,1.068
21,3,80,200,4.2,0.30719,3.3765,2,0.83836,1,1.0543
21,3,81,201,4.2,0.3249,4.2541,2,1.055,1,1.5943
21,3,82,202,4.2,0.45632,4.5894,2,1.1461,1,0.99956
21,3,83,203,4.2,0.349,5.0096,2,1.4747,1,0.9997
21,3,84,204,2.1,0.5196,2.3596,3,1.3915,0,0.62806
21,3,85,205,2.1,0.44191,2.7229,3,1.614,0,1.3486
21,3,86,206,2.1,0.51623,2.2887,3,2.1297,0,1.3399
21,3,87,207,4.2,0.43099,3.8041,3,1.3373,1,2.0196
21,3,88,208,4.2,0.4378,4.5546,2,0.77289,1,0.68448
21,3,89,209,4.2,0.8963,5.608,2,0.97625,1,0.69817
21,3,90,210,2.1,0.92143,2.8429,3,2.2456,1,1.2482
22,3,1,121,4.2,0.57368,3.3006,3,0.42366,1,0.78969
22,3,2,122,2.1,0.73023,1.8438,2,0.20186,0,0.22212
22,3,3,123,4.2,0.46605,2.8693,2,0.51399,1,0.91725
22,3,4,124,2.1,0.53645,2.1595,3,1.9868,1,0.056357
22,3,5,125,4.2,0.3773,3.0918,3,0.17031,1,0.39932
22,3,6,126,2.1,0.54677,2.4458,2,0.33788,1,0.23782
22,3,7,127,4.2,1.0878,3.0718,1,0.19092,1,0.13958
22,3,8,128,4.2,0.63735,3.7097,2,0.15788,1,0.34023
22,3,9,129,4.2,0.43052,4.6169,1,0.78597,1,0.60848
22,3,10,130,4.2,1.2542,2.3217,1,0.28079,0,1.6675
22,3,11,131,4.2,0.34522,3.0194,2,0.17729,1,0.10175
22,3,12,132,2.1,0.67407,1.763,2,0.23684,1,0.1365
22,3,13,133,2.1,0.54881,2.1932,3,1.0499,0,0.51711
22,3,14,134,2.1,0.6788,3.1177,1,0.37564,1,0.62789
22,3,15,135,2.1,0.76228,1.4058,2,0.1596,1,0.26391
22,3,16,136,4.2,0.99614,2.9923,2,1.6342,0,0.9668
22,3,17,137,4.2,0.62012,4.0477,2,0.21102,1,0.152
22,3,18,138,4.2,0.63287,3.3684,2,0.79989,1,1.4692
22,3,19,139,2.1,0.53144,2.0296,2,1.6281,1,0.33935
22,3,20,140,4.2,0.5704,3.0236,2,0.35522,1,0.40032
22,3,21,141,2.1,0.53213,2.0932,2,0.28639,1,0.23604
22,3,22,142,4.2,0.38063,3.5918,3,0.46901,0,0.3844
22,3,23,143,2.1,1.3859,2.5307,3,0.81378,1,0.54221
22,3,24,144,2.1,1.2004,1.7046,2,0.27011,0,0.31079
22,3,25,145,4.2,0.3463,2.9208,2,0.54138,1,0.23774
22,3,26,146,2.1,0.68782,1.623,2,0.2478,0,0.19251
22,3,27,147,2.1,0.73792,1.6477,2,0.48977,1,0.92554
22,3,28,148,2.1,0.63549,1.7084,3,0.14858,0,0.13213
22,3,29,149,4.2,0.72253,3.4002,3,0.51019,1,0.3546
22,3,30,150,2.1,0.84885,2.5432,3,0.19794,1,0.16758
22,3,31,151,4.2,0.53227,3.0932,3,0.97137,1,1.5352
22,3,32,152,2.1,0.48105,2.1172,2,0.19031,1,0.18848
22,3,33,153,4.2,0.53122,3.0424,3,0.43377,1,0.14484
22,3,34,154,2.1,1.1126,3.2185,1,1.3749,0,0.72539
22,3,35,155,2.1,1.173,1.8481,2,0.43903,1,0.28733
22,3,36,156,2.1,0.58688,1.56,2,0.50162,1,0.34595
22,3,37,157,4.2,0.49512,3.118,3,1.1007,1,0.38032
22,3,38,158,2.1,0.52299,2.7256,3,1.3207,1,0.38333
22,3,39,159,4.2,0.40276,4.4855,2,0.56377,1,0.21687
22,3,40,160,4.2,0.42595,3.7643,2,1.013,1,0.25191
22,3,41,161,4.2,0.41515,3.2311,2,4.4513,1,1.1624
22,3,42,162,4.2,0.35511,3.5759,1,1.4315,1,0.17757
22,3,43,163,4.2,0.46694,3.632,2,0.32577,1,0.12867
22,3,44,164,4.2,0.58841,3.8113,2,0.6458,1,0.16483
22,3,45,165,2.1,0.80943,3.1916,2,0.49434,1,0.42596
22,3,46,166,2.1,0.50003,2.4693,2,0.19152,1,0.12769
22,3,47,167,4.2,0.31794,2.9473,3,0.19978,1,0.13255
22,3,48,168,2.1,0.58059,2.7466,2,0.1636,1,0.15473
22,3,49,169,2.1,0.80938,2.0394,2,0.33336,1,0.16953
22,3,50,170,2.1,0.6444,1.6307,2,0.27528,1,0.31562
22,3,51,171,2.1,1.5553,2.6094,3,2.5225,1,0.51905
22,3,52,172,2.1,0.97152,0.52287,1,1.176,0,0.78971
22,3,53,173,2.1,0.61075,2.4052,3,1.0935,1,0.3024
22,3,54,174,4.2,0.34273,3.7039,2,1.5507,1,0.15564
22,3,55,175,4.2,0.36858,2.6467,2,1.4266,0,0.90153
22,3,56,176,4.2,0.52029,3.4351,2,0.73763,1,0.4739
22,3,57,177,4.2,0.42576,3.9531,2,1.8259,0,0.94883
22,3,58,178,2.1,0.79733,2.895,2,0.47397,1,0.33914
22,3,59,179,4.2,0.3647,3.4186,2,0.33767,0,1.3733
22,3,60,180,4.2,0.38342,3.1448,3,0.17273,1,0.17645
22,3,61,181,4.2,1.1014,3.1811,3,0.26415,1,0.34215
22,3,62,182,2.1,1.0077,1.9627,3,0.173,1,0.17704
22,3,63,183,4.2,0.69497,3.0928,3,1.108,1,0.22559
22,3,64,184,2.1,1.3498,2.3917,2,14.922,1,0.27818
22,3,65,185,2.1,0.28833,2.4377,3,0.60574,1,0.11221
22,3,66,186,4.2,0.3486,2.7442,3,0.27277,1,0.20083
22,3,67,187,4.2,0.33263,3.2822,3,0.57598,1,0.21671
22,3,68,188,2.1,0.67004,2.1594,2,0.21092,1,0.16438
22,3,69,189,2.1,0.31569,2.4316,3,0.17325,1,0.1518
22,3,70,190,2.1,0.4635,2.1211,2,0.41848,1,0.38341
22,3,71,191,4.2,0.29256,3.8047,1,0.6387,1,0.58785
22,3,72,192,4.2,0.45077,3.3215,3,0.20252,1,0.18587
22,3,73,193,4.2,0.34432,2.818,2,1.027,1,0.17813
22,3,74,194,2.1,0.59952,1.7679,2,0.1793,1,0.15383
22,3,75,195,4.2,0.31537,3.0686,2,0.17608,1,0.22553
22,3,76,196,4.2,0.69635,2.719,3,0.69011,1,0.20116
22,3,77,197,2.1,0.79163,2.4894,2,0.056391,1,0.089514
22,3,78,198,4.2,0.47084,3.1475,3,0.063593,1,0.091877
22,3,79,199,4.2,0.474,3.3514,2,0.24912,1,0.24426
22,3,80,200,2.1,0.65013,2.6306,3,0.16487,0,0.31856
22,3,81,201,2.1,0.46078,2.4553,3,0.34397,1,0.15098
22,3,82,202,2.1,0.43094,2.292,2,0.15944,0,0.15518
22,3,83,203,2.1,0.57543,2.2153,1,1.4758,1,0.4755
22,3,84,204,2.1,0.67234,3.236,1,0.56393,1,0.31728
22,3,85,205,2.1,0.41256,2.4079,2,0.133,0,0.095628
22,3,86,206,4.2,6.1117,4.7932,2,1.1287,0,0.49248
22,3,87,207,2.1,0.45828,2.1658,3,1.0256,1,0.20105
22,3,88,208,2.1,0.54326,2.1775,3,0.1383,1,0.15006
22,3,89,209,4.2,0.37972,2.457,2,1.2074,1,0.22496
22,3,90,210,4.2,0.38611,3.234,2,0.26258,1,0.16569
23,3,1,121,4.2,0.63187,3.6936,2,1.8946,1,2.0886
23,3,2,122,2.1,0.55142,2.4333,1,1.9626,1,0.31559
23,3,3,123,2.1,0.46861,2.0593,2,0.92422,0,0.51333
23,3,4,124,4.2,0.15895,3.9177,2,1.6016,1,0.54213
23,3,5,125,2.1,2.3593,2.1602,2,1.6991,0,0.99037
23,3,6,126,2.1,3.9841,2.5138,2,1.6641,0,0.91329
23,3,7,127,4.2,0.67633,5.5784,3,1.1173,1,0.51712
23,3,8,128,2.1,0.70358,3.4984,1,1.6117,1,0.69067
23,3,9,129,2.1,0.57466,2.5016,2,1.1036,1,0.91956
23,3,10,130,2.1,0.7764,3.2029,1,2.2889,1,1.0448
23,3,11,131,2.1,2.8308,2.7385,2,2.8182,1,0.86367
23,3,12,132,4.2,0.58295,4.6443,3,2.2678,1,1.2022
23,3,13,133,4.2,0.49935,4.1321,3,1.3615,0,1.3653
23,3,14,134,4.2,0.70979,4.1525,3,1.224,0,2.0996
23,3,15,135,4.2,0.44065,4.8532,1,2.1876,1,0.73155
23,3,16,136,2.1,0.56988,1.5477,1,1.5882,0,0.74629
23,3,17,137,4.2,0.58265,3.1684,2,1.6007,0,1.3667
23,3,18,138,2.1,0.49305,2.2295,2,1.9638,0,0.89261
23,3,19,139,2.1,1.2121,2.8291,2,2.2118,1,2.0396
23,3,20,140,2.1,0.44593,2.6083,1,2.0079,0,0.73598
23,3,21,141,4.2,0.70289,4.9464,2,1.3329,1,0.66515
23,3,22,142,2.1,0.51023,2.2674,2,2.1395,0,2.0586
23,3,23,143,2.1,1.3444,3.2902,1,1.706,1,0.54603
23,3,24,144,4.2,0.74815,4.3418,2,1.6032,0,0.33206
23,3,25,145,4.2,0.76666,2.8058,2,1.555,1,1.6589
23,3,26,146,4.2,0.93204,4.8797,2,1.5946,1,0.73801
23,3,27,147,4.2,0.48624,4.46,1,3.9178,1,1.3132
23,3,28,148,2.1,0.44806,2.1549,2,1.9692,0,0.85608
23,3,29,149,2.1,0.67504,2.1767,2,1.5112,1,1.0521
23,3,30,150,2.1,0.42732,2.618,2,1.6273,1,0.68935
23,3,31,151,2.1,0.58393,2.595,2,1.5874,1,0.81963
23,3,32,152,4.2,0.49681,4.2454,3,1.97,0,1.168
23,3,33,153,2.1,0.44995,2.6317,2,2.0276,0,1.5005
23,3,34,154,4.2,0.40044,3.7699,2,2.249,1,0.98128
23,3,35,155,2.1,0.4566,1.4509,1,1.9803,0,0.20285
23,3,36,156,4.2,0.43855,3.312,2,1.2237,1,0.43707
23,3,37,157,4.2,0.44707,3.2176,2,1.2358,0,0.94454
23,3,38,158,4.2,1.4155,5.157,1,2.1377,1,0.93156
23,3,39,159,2.1,0.55869,2.9649,1,1.2898,1,1.2365
23,3,40,160,4.2,0.63212,3.5548,2,2.129,1,1.4884
23,3,41,161,4.2,0.40258,3.3351,2,2.6124,0,1.6253
23,3,42,162,4.2,0.72821,5.1926,3,1.0767,1,2.5149
23,3,43,163,2.1,0.49979,2.4558,1,1.7201,1,0.68127
23,3,44,164,4.2,1.2979,4.6075,2,1.2007,0,1.294
23,3,45,165,2.1,0.71447,2.8293,2,1.9377,1,1.3315
23,3,46,166,4.2,1.0191,3.4699,2,1.5508,1,0.96756
23,3,47,167,4.2,0.39615,7.8572,1,2.247,1,0.7011
23,3,48,168,4.2,0.74868,4.4794,2,1.5206,1,0.72037
23,3,49,169,2.1,0.69933,1.5931,2,1.5014,1,0.36736
23,3,50,170,2.1,0.58152,2.6043,2,1.8807,0,1.1908
23,3,51,171,2.1,0.40611,2.7498,2,1.5757,1,0.9001
23,3,52,172,4.2,0.52199,5.9497,2,1.769,1,0.75574
23,3,53,173,4.2,0.64842,3.93,1,1.5849,1,0.5682
23,3,54,174,4.2,1.4675,3.1437,1,1.4087,1,1.3872
23,3,55,175,2.1,0.5425,3.4534,2,2.2264,1,0.67423
23,3,56,176,4.2,1.3933,3.1641,1,1.5256,0,1.3004
23,3,57,177,4.2,0.54922,3.6427,2,1.6824,1,1.8148
23,3,58,178,4.2,0.4866,4.0223,2,2.0772,1,0.4625
23,3,59,179,4.2,1.3054,4.7855,2,1.2503,1,1.2429
23,3,60,180,2.1,0.98556,2.5829,2,0.75025,0,0.8561
