Subj_idx,Block,Trial,RT_stop,Stimulus,Response,Error,Confidence,RT_confidence,ErrorDirectionJudgment,RT_directionJudgment
1,1,1,2.88507936507937,7,7,0,3,2.57609332399988,-1,7.24248186799923
1,1,2,2.82267573696145,7,8,1,2,2.19365939399904,-1,1.84800154100049
1,1,3,2.18267573696145,7,5,-2,2,2.74662944099873,-1,1.6073386120006
1,1,4,2.53532879818594,7,6,-1,2,2.12082606900003,-1,0.946860883999761
1,1,5,1.96498866213152,7,6,-1,3,3.20088670900077,-1,2.59475100999953
1,1,6,2.50775510204082,7,7,0,2,2.56982654899912,-1,0.887443301999156
1,1,7,2.57596371882086,7,7,0,2,5.56256339799984,-1,2.63150550099999
1,1,8,2.29877551020408,7,7,0,2,2.42723878099969,-1,3.25393395100036
1,1,9,2.46131519274376,7,6,-1,2,4.17316232300072,-1,2.87826778499948
1,1,10,2.52371882086168,7,7,0,2,2.32468654900003,-1,3.06100628599961
1,1,11,1.95482993197279,7,5,-2,1,2.34990945900063,-1,0.884500512000159
1,1,12,2.59337868480726,7,6,-1,3,2.70038173900139,-1,1.61346737399981
1,1,13,2.01868480725624,7,6,-1,2,3.66056892699999,-1,2.33984191799937
1,1,14,2.0390022675737,7,6,-1,2,3.5366647130013,-1,1.05496146799851
1,1,15,2.87637188208617,7,8,1,1,2.62864400900071,-1,1.00542242699885
1,1,16,1.75310657596372,7,6,-1,3,3.08417956799894,-1,1.62735051799973
1,1,17,2.33650793650794,7,6,-1,2,3.36326772199936,-1,1.60608597899954
1,1,18,2.10575963718821,7,6,-1,3,1.87848038599986,-1,2.4590200269995
1,1,19,2.07673469387755,7,5,-2,1,3.44914715600135,-1,1.25695953700051
1,1,20,2.55709750566893,7,7,0,3,2.39732284599995,-1,3.07178233400009
1,1,21,2.53532879818594,7,6,-1,2,4.79859794399999,-1,1.95011521299966
1,1,22,2.65433106575964,7,6,-1,1,2.18953610300014,-1,1.35456376299953
1,1,23,1.99256235827664,7,6,-1,3,1.83888949200082,-1,1.6661864609996
1,1,24,3.37269841269841,7,9,2,1,3.09101394299978,-1,1.17752423599995
1,1,25,2.83863945578231,7,7,0,2,3.11079864499879,-1,1.01318335599899
1,1,26,2.29732426303855,7,7,0,2,1.56249981200017,-1,1.25996945200131
1,1,27,2.23201814058957,7,6,-1,3,2.03496797099979,-1,1.83173801900011
1,1,28,1.86630385487528,7,6,-1,1,1.85475885099913,-1,0.955393715001264
1,1,29,2.65142857142857,7,7,0,2,1.49927961000139,-1,0.952969371999643
1,1,30,2.20009070294785,7,5,-2,1,2.71547897900018,-1,0.330680150000262
1,1,31,1.95482993197279,7,5,-2,2,2.91527074700025,-1,1.32156892200146
1,1,32,2.98956916099773,7,7,0,2,3.10017886999958,-1,1.05080276499939
1,1,33,2.38294784580499,7,6,-1,1,2.1474760100009,-1,2.57847940300053
1,1,34,2.18267573696145,7,6,-1,2,5.25638568500108,-1,2.7953179899996
1,1,35,3.01133786848073,7,7,0,1,1.93439325100007,-1,0.863187875000222
1,1,36,2.13768707482993,7,5,-2,3,4.05725928500033,-1,0.927844900001219
1,1,37,2.05786848072562,7,6,-1,1,1.93252953400042,-1,3.2530208169992
1,1,38,2.07092970521542,7,5,-2,1,1.68360294500053,-1,2.55212933900111
1,1,39,2.27845804988662,7,7,0,2,1.85507745700124,-1,1.24243729800037
1,1,40,2.10575963718821,7,6,-1,3,5.39606269400065,-1,1.55278789099975
1,1,41,1.45414965986395,7,5,-2,1,2.06559157899937,-1,0.294074485000237
1,1,42,1.84453514739229,7,6,-1,3,1.47019314700083,-1,1.54649814000004
1,1,43,2.1231746031746,7,6,-1,3,3.20920903899969,-1,3.09031520200006
1,1,44,3.07519274376417,7,8,1,1,1.82027898600063,-1,1.24231678799879
1,1,45,2.30022675736961,7,7,0,2,4.34902704200067,-1,2.82374784300009
1,1,46,1.76036281179138,7,5,-2,1,2.12392506600008,-1,1.0119368450014
1,1,47,2.20154195011338,7,6,-1,2,4.06024597300166,-1,1.50641000599899
1,1,48,2.4584126984127,7,7,0,3,3.33133514499968,-1,3.20820488799836
1,1,49,2.59337868480726,7,6,-1,2,5.94708703699871,-1,2.3123887239999
1,1,50,1.93160997732426,7,6,-1,1,2.41633115500008,-1,0.988508976000958
1,1,51,2.23492063492063,7,6,-1,1,3.639263467001,-1,0.991873080000005
1,1,52,2.46131519274376,7,6,-1,2,3.58081952499924,-1,2.76098477300002
1,1,53,1.89823129251701,7,5,-2,3,2.18820545100061,-1,0.848905484999705
1,1,54,1.43818594104308,7,4,-3,1,1.6120830660002,-1,0.498173096000755
1,1,55,2.09705215419501,7,6,-1,3,3.52789127899996,-1,1.57308318499963
1,1,56,1.99256235827664,7,6,-1,3,1.8509027529999,-1,0.632376036001006
1,1,57,2.04335600907029,7,5,-2,1,1.16331174600055,-1,0.23789519300044
1,1,58,1.91709750566893,7,5,-2,3,1.60385984999994,-1,2.7615883139988
1,1,59,1.7168253968254,7,4,-3,1,4.34447766399899,-1,1.41045771999961
1,1,60,2.17396825396825,7,6,-1,3,3.33694198599915,-1,1.47948826999891
1,1,61,1.47156462585034,7,4,-3,1,2.0722216209997,-1,0.634662899999967
1,1,62,1.74585034013605,7,6,-1,3,1.49622914300016,-1,1.31587138100076
1,1,63,2.20444444444444,7,6,-1,3,2.25078327700066,-1,1.01379543799885
1,1,64,2.27555555555556,7,6,-1,3,4.31245921599839,-1,0.722060505000627
1,1,65,2.19573696145125,7,6,-1,3,1.5569032930016,-1,0.822501041000578
1,1,66,2.31473922902494,7,6,-1,2,1.69405900600032,-1,0.609201655001016
1,1,67,2.66303854875283,7,6,-1,1,3.25011709799946,-1,1.22596995300046
1,1,68,2.47147392290249,7,6,-1,3,2.94224572299936,-1,1.08297390199914
1,1,69,2.58176870748299,7,7,0,3,1.78110918499988,-1,3.58841730499989
1,1,70,2.56290249433107,7,6,-1,2,2.3863638139992,-1,0.816187110998726
1,1,71,2.27990929705215,7,6,-1,2,4.1041933359993,-1,1.74121519000073
1,1,72,2.00562358276644,7,5,-2,3,2.2055056370009,-1,2.17068657699929
1,1,73,2.17106575963719,7,6,-1,2,3.10932927700014,-1,1.98582390600131
1,1,74,2.71092970521542,7,7,0,1,2.89708869800052,-1,0.73769641799845
1,1,75,1.76761904761905,7,5,-2,1,1.56844737900065,-1,0.305969398999878
1,1,76,2.17251700680272,7,5,-2,2,4.42816122300064,-1,1.97132769100062
1,1,77,2.06367346938775,7,6,-1,2,4.52323770300063,-1,2.85350194899911
1,1,78,2.00852607709751,7,6,-1,3,1.64945668899963,-1,2.99070419099917
1,1,79,2.14784580498866,7,6,-1,3,4.1885095130001,-1,1.1328360589996
1,1,80,2.28426303854875,7,6,-1,2,4.17897373599953,-1,2.29116147899913
1,1,81,1.77052154195011,7,6,-1,1,3.66062192200116,-1,0.642051171000276
1,2,1,3.37705215419501,11,9,-2,1,3.43432539800051,-1,0.898587263000081
1,2,2,3.22902494331066,11,8,-3,2,2.53850949699881,-1,0.923317075999876
1,2,3,3.38430839002268,11,9,-2,1,1.60768801199993,-1,0.470388886000364
1,2,4,3.12018140589569,11,8,-3,2,2.24583901199912,-1,1.51368555600129
1,2,5,3.1869387755102,11,8,-3,2,2.61079404500015,-1,0.382377746000202
1,2,6,3.00553287981859,11,8,-3,2,3.21966115400028,-1,1.78933658300048
1,2,7,3.62666666666667,11,9,-2,3,1.43408317799913,-1,1.22494936099974
1,2,8,3.33786848072562,11,8,-3,2,1.74303661799968,-1,0.599970274999578
1,2,9,2.90104308390023,11,8,-3,1,1.48538210000152,-1,0.366244794999147
1,2,10,3.43074829931973,11,9,-2,2,3.89272882799924,-1,2.15290972000003
1,2,11,3.48154195011338,11,8,-3,1,1.84102822700152,-1,1.5180269600005
1,2,12,3.96045351473923,11,10,-1,1,2.65916416500113,-1,0.371517840001616
1,2,13,3.21741496598639,11,9,-2,3,2.72456093099936,-1,2.14771579200169
1,2,14,4.08961451247166,11,10,-1,2,4.07935357499991,-1,1.13227651799934
1,2,15,2.56725623582766,11,7,-4,1,1.78539781200016,-1,0.241697833000217
1,2,16,3.00553287981859,11,9,-2,3,1.48389328300073,-1,0.78347184300037
1,2,17,3.10857142857143,11,8,-3,2,3.56435414100088,-1,0.310959742000705
1,2,18,3.50331065759637,11,8,-3,1,3.02078427100059,-1,1.23902362199988
1,2,19,3.54104308390023,11,10,-1,1,1.76556178600003,-1,0.574152514998787
1,2,20,3.6281179138322,11,9,-2,1,3.04493799499869,-1,0.903141005999714
1,2,21,4.02866213151927,11,11,0,3,1.54741360200023,-1,2.25233904199922
1,2,22,3.9415873015873,11,11,0,3,3.55896631299947,-1,0.76203909600008
1,2,23,3.48734693877551,11,9,-2,1,1.51672867900015,-1,0.246890550999524
1,2,24,3.90240362811791,11,10,-1,1,1.3167040699991,-1,0.296334806998857
1,2,25,3.60925170068027,11,9,-2,1,1.38115538499915,-1,0.348812479000117
1,2,26,4.08526077097506,11,10,-1,1,1.70696979199965,-1,0.245998385998973
1,2,27,3.63102040816327,11,10,-1,2,1.14859784100008,-1,1.43944489900059
1,2,28,3.41043083900227,11,10,-1,3,1.86115731599966,-1,2.4748759260001
1,2,29,4.0518820861678,11,9,-2,2,1.62279327299984,-1,0.39062350399945
1,2,30,4.75283446712018,11,11,0,3,1.40620005399978,-1,1.53353036299995
1,2,31,3.85886621315193,11,11,0,2,1.64004324499911,-1,0.405368211000678
1,2,32,3.66875283446712,11,9,-2,2,3.23811701399973,-1,1.03263485300158
1,2,33,3.28707482993197,11,9,-2,1,4.05435196500002,-1,0.700249781000821
1,2,34,3.04471655328798,11,8,-3,2,1.37700921800024,-1,0.225942228000349
1,2,35,4.18539682539683,11,11,0,2,1.79513028099973,-1,0.755488652999702
1,2,36,4.13750566893424,11,12,1,1,1.66777813899898,-1,0.247850825999194
1,2,37,3.45251700680272,11,8,-3,3,1.45918900800098,-1,1.44862861399997
1,2,38,3.66875283446712,11,9,-2,3,1.40377585399983,-1,2.37856407599975
1,2,39,4.17378684807256,11,11,0,1,2.36310045100072,-1,0.457224088999283
1,2,40,3.44526077097506,11,9,-2,1,1.51595440200072,-1,0.926541479000662
1,2,41,3.78630385487528,11,10,-1,2,1.9021080120001,-1,0.281477859000006
1,2,42,0.0043537414965986,11,1,-10,3,6.2905979620009,-1,9.02607146300033
1,2,43,3.99383219954649,11,11,0,1,4.0759093730012,-1,1.08835484500014
1,2,44,3.62086167800454,11,10,-1,2,1.39369102800083,-1,0.295846397999412
1,2,45,4.41034013605442,11,10,-1,1,1.89406098099971,-1,0.273295348999454
1,2,46,4.56707482993197,11,11,0,2,1.36601120600062,-1,0.335088342000745
1,2,47,4.81378684807256,11,12,1,3,1.75282965000042,-1,1.01691830299933
1,2,48,3.70068027210884,11,9,-2,1,3.45203786400089,-1,0.308303146999606
1,2,49,4.05768707482993,11,10,-1,3,1.34923880199858,-1,1.77702908100036
1,2,50,4.13315192743764,11,10,-1,2,1.87861850400077,-1,0.555779257998438
1,2,51,3.36253968253968,11,10,-1,1,1.90090697000051,-1,0.577157957000964
1,2,52,3.70938775510204,11,10,-1,1,1.79628270300054,-1,1.40242819200103
1,2,53,2.89668934240363,11,8,-3,2,4.42665313699945,-1,1.0951731339992
1,2,54,3.99383219954649,11,10,-1,2,3.6721213210003,-1,2.53542286300035
1,2,55,4.57433106575964,11,12,1,3,1.84710101000019,-1,1.64342492099968
1,2,56,4.01995464852608,11,10,-1,3,1.5234938020003,-1,1.40540151000096
1,2,57,3.89079365079365,11,10,-1,3,2.63842041800126,-1,2.36002599899984
1,2,58,3.6368253968254,11,10,-1,2,2.58202478100065,-1,2.73261848400034
1,2,59,3.70503401360544,11,8,-3,1,1.65666661499927,-1,0.780853815000228
1,2,60,4.99083900226757,11,12,1,1,4.6476852959986,-1,1.76388102899909
1,2,61,4.24780045351474,11,12,1,1,2.464689370001,-1,0.608818960001372
1,2,62,3.72825396825397,11,9,-2,2,4.08006086400019,-1,0.987947589999749
1,2,63,4.09106575963719,11,11,0,2,3.35012670700053,-1,0.972213291999651
1,2,64,3.18258503401361,11,8,-3,2,3.97841135700037,-1,0.35734186299851
1,2,65,4.06204081632653,11,11,0,1,3.07619949600121,-1,2.17204515100093
1,2,66,3.95319727891156,11,10,-1,2,2.26076438400014,-1,1.3828497279992
1,2,67,4.13170068027211,11,9,-2,2,2.73234215899902,-1,0.882592695999847
1,2,68,3.92852607709751,11,11,0,3,1.73619284199958,-1,1.59397594499933
1,2,69,5.91383219954649,11,14,3,1,2.51609782899868,-1,1.00532443999873
1,2,70,4.19410430839002,11,11,0,1,3.40157151899984,-1,0.540262548000101
1,2,71,3.63972789115646,11,9,-2,2,1.17588529900058,-1,1.001241725
1,2,72,3.99528344671202,11,10,-1,2,1.88658105099967,-1,0.825393770001028
1,2,73,4.03011337868481,11,11,0,3,3.74721392500032,-1,0.36527166399901
1,2,74,4.3653514739229,11,11,0,2,3.45645134199913,-1,0.488774743000249
1,2,75,4.27827664399093,11,10,-1,3,1.17020631100058,-1,2.01999437099948
1,2,76,3.50040816326531,11,8,-3,3,1.07612735800103,-1,0.433927551001034
1,2,77,2.99972789115646,11,9,-2,2,1.97275271500075,-1,0.917397227998663
1,2,78,3.34657596371882,11,9,-2,3,1.40232716299943,-1,0.85757504600042
1,2,79,3.17387755102041,11,9,-2,1,1.62653833900004,-1,0.658089623000706
1,2,80,3.69632653061224,11,10,-1,1,3.22955912600082,-1,0.581840864999322
2,1,1,4.49015873015873,11,11,0,3,2.78618897870183,-1,4.45166657492518
2,1,2,4.59174603174603,11,11,0,3,3.4824900124222,-1,3.85544049181044
2,1,3,5.20417233560091,11,12,1,3,1.69484894350171,-1,1.26131713017821
2,1,4,2.81106575963719,11,7,-4,1,3.63967439159751,-1,3.21395931020379
2,1,5,3.7384126984127,11,11,0,1,3.76768434979022,-1,1.21682921051979
2,1,6,4.8108843537415,11,13,2,2,2.22179032862186,-1,1.02996252663434
2,1,7,5.01260770975057,11,12,1,2,7.40637704543769,-1,1.04121468216181
2,1,8,4.7847619047619,11,11,0,3,1.93447197973728,-1,0.59307218529284
2,1,9,4.76444444444444,11,12,1,2,2.10363891161978,-1,0.301040610298514
2,1,10,4.23038548752834,11,12,1,2,0.898836188018322,-1,0.273728623986244
2,1,11,4.41469387755102,11,10,-1,2,3.50681023672223,-1,0.262598868459463
2,1,12,4.8108843537415,11,12,1,2,1.97297189943492,-1,0.22382240369916
2,1,13,4.86312925170068,11,13,2,1,1.79708448424935,-1,0.281064892187715
2,1,14,5.18240362811791,11,12,1,1,1.89530399627984,-1,0.492894595488906
2,1,15,4.72816326530612,11,12,1,1,2.4730416610837,-1,0.440040180459619
2,1,16,4.2550566893424,11,11,0,2,3.82440769672394,-1,3.06271487660706
2,1,17,4.72090702947846,11,12,1,2,1.97959143482149,-1,0.228705665096641
2,1,18,4.34793650793651,11,13,2,2,1.19278178736567,-1,0.227809157222509
2,1,19,3.04036281179138,11,8,-3,2,1.46768237091601,-1,0.267408771440387
2,1,20,4.63383219954649,11,12,1,2,1.37033661082387,-1,0.285042503848672
2,1,21,4.18539682539683,11,10,-1,2,1.38761045597494,-1,0.348995838314295
2,1,22,4.50321995464853,11,11,0,1,1.68613438867033,-1,3.57222975417972
2,1,23,5.59310657596372,11,13,2,2,1.47924954630435,-1,0.358075311407447
2,1,24,5.22303854875283,11,12,1,1,3.09701669961214,-1,0.358091814443469
2,1,25,4.36825396825397,11,10,-1,2,2.92185293510556,-1,0.229514488950372
2,1,26,4.35229024943311,11,13,2,2,2.29073695838451,-1,2.05732500366867
2,1,27,4.85877551020408,11,12,1,2,1.97187382541597,-1,0.238811016082764
2,1,28,5.35074829931973,11,12,1,2,2.06392786279321,-1,0.255052790045738
2,1,29,5.02421768707483,11,12,1,1,1.72079588286579,-1,0.901638692244887
2,1,30,3.25514739229025,11,8,-3,3,1.05408825166523,-1,0.0318161435425282
2,1,31,4.96907029478458,11,12,1,2,2.54983969219029,-1,0.23133260756731
2,1,32,0.319274376417234,11,1,-10,1,2.50822335109115,-1,1.3059319332242
2,1,33,5.24480725623583,11,14,3,2,9.1477216295898,-1,0.254235364496708
2,1,34,4.2507029478458,11,11,0,3,1.51068645343184,-1,3.81127065978944
2,1,35,4.93714285714286,11,12,1,2,1.99118960089982,-1,0.481922246515751
2,1,36,3.36544217687075,11,8,-3,1,2.57482571713626,-1,1.18525191955268
2,1,37,5.63809523809524,11,13,2,2,1.33932311274111,-1,0.200045716017485
2,1,38,4.38857142857143,11,11,0,2,1.19125655665994,-1,0.211705317720771
2,1,39,4.68172335600907,11,12,1,2,0.716940309852362,-1,0.267739387229085
2,1,40,6.41886621315193,11,15,4,1,2.16868057847023,-1,0.21025475487113
2,1,41,4.55111111111111,11,12,1,2,1.24588419310749,-1,0.287180146202445
2,1,42,4.43501133786848,11,12,1,2,2.22109645046294,-1,0.141650401055813
2,1,43,4.79927437641723,11,11,0,3,1.16485527902842,-1,1.89456398412585
2,1,44,4.03591836734694,11,11,0,3,1.12042325921357,-1,0.925741232931614
2,1,45,4.46258503401361,11,11,0,2,2.32957665622234,-1,0.42982566729188
2,1,46,4.58884353741497,11,12,1,3,2.35599547252059,-1,0.790034279227257
2,1,47,4.16362811791383,11,11,0,2,2.37795376218855,-1,0.561854800209403
2,1,48,3.75292517006803,11,11,0,3,1.52565748058259,-1,0.386005364358425
2,1,49,4.99229024943311,11,14,3,1,2.11809133552015,-1,4.2583492808044
2,1,50,5.53650793650794,11,13,2,2,2.28792021237314,-1,0.548479519784451
2,1,51,4.678820861678,11,12,1,2,1.08292979188263,-1,0.217222237959504
2,1,52,4.24925170068027,11,10,-1,2,1.37203280068934,-1,0.237890388816595
2,1,53,3.23047619047619,11,8,-3,1,0.818172328174114,-1,0.141132723540068
2,1,54,4.27972789115646,11,10,-1,3,1.3222186230123,-1,0.20783512480557
2,1,55,4.40018140589569,11,11,0,3,1.21844599582255,-1,0.0346560385078192
2,1,56,0.0058049886621315,11,1,-10,1,4.32322474382818,-1,0.552996655926108
2,1,57,4.45242630385488,11,11,0,3,1.11079815588892,-1,1.8774627931416
2,1,58,4.12299319727891,11,12,1,2,1.90562061592937,-1,0.214098129421473
2,1,59,4.65560090702948,11,11,0,3,1.06850071437657,-1,1.15641522407532
2,1,60,4.01850340136054,11,11,0,2,1.25690760836005,-1,1.49739462696016
2,1,61,4.07800453514739,11,11,0,3,3.56224190071225,-1,0.267988439649343
2,1,62,4.62367346938776,11,11,0,2,2.32526655122638,-1,0.28954160399735
2,1,63,4.33922902494331,11,11,0,3,1.59635708853602,-1,0.293339043855667
2,1,64,0.0058049886621315,11,1,-10,1,3.03406413085759,-1,0.864024927839637
2,1,65,5.07936507936508,11,12,1,2,1.43873896077275,-1,0.527271708473563
2,1,66,4.41759637188209,11,12,1,1,1.12021240778267,-1,0.133164707571268
2,1,67,4.28843537414966,11,12,1,3,3.46258980035782,-1,0.195817502215505
2,1,68,4.28263038548753,11,11,0,2,1.53039839118719,-1,0.151324627920985
2,1,69,4.77460317460317,11,11,0,2,0.886769596487284,-1,0.190753364935517
2,1,70,4.48290249433107,11,11,0,3,3.48749643936753,-1,1.65160159766674
2,1,71,4.41324263038549,11,11,0,3,2.93300308473408,-1,6.47905629128218
2,1,72,4.72671201814059,11,13,2,2,1.89249623380601,-1,0.483721842989326
2,1,73,4.54240362811791,11,11,0,2,1.57602852396667,-1,0.427278537303209
2,1,74,4.99083900226757,11,13,2,2,1.52208063565195,-1,0.190488141030073
2,1,75,4.48,11,11,0,2,1.77418292872608,-1,0.232686107978225
2,1,76,5.36671201814059,11,14,3,1,1.49975694715977,-1,0.265793241560459
2,2,1,2.84299319727891,7,7,0,2,1.66741342283785,-1,2.38664325512946
2,2,2,2.61224489795918,7,7,0,2,1.11284721642733,-1,0.735622255131602
2,2,3,2.61369614512472,7,7,0,3,2.26066262833774,-1,1.0684071239084
2,2,4,3.02149659863946,7,7,0,3,0.932112088426948,-1,1.08916010707617
2,2,5,3.12018140589569,7,8,1,3,1.30541232787073,-1,0.253845436498523
2,2,6,2.73560090702948,7,7,0,2,4.33452965132892,-1,0.128393527120352
2,2,7,3.50621315192744,7,8,1,2,4.26987533830106,-1,0.554254006594419
2,2,8,2.04625850340136,7,6,-1,2,1.12533262372017,-1,0.660022035241127
2,2,9,3.12163265306122,7,9,2,2,0.755629340186715,-1,0.213784236460924
2,2,10,2.5643537414966,7,7,0,2,1.13520897366107,-1,0.0839543882757425
2,2,11,3.23047619047619,7,9,2,2,0.543410316109657,-1,0.0165978707373142
2,2,12,5.58149659863946,7,14,7,1,1.34050048701465,-1,0.810674866661429
2,2,13,2.83283446712018,7,7,0,2,0.802542947232723,-1,0.196068411692977
2,2,14,2.53532879818594,7,7,0,3,0.752363773062825,-1,0.0538448300212622
2,2,15,3.21160997732426,7,7,0,3,0.72722721286118,-1,0.0777310114353895
2,2,16,2.76607709750567,7,7,0,3,0.620303435251117,-1,0.0163003709167242
2,2,17,2.98086167800454,7,8,1,2,0.9893400054425,-1,0.951746696606278
2,2,18,2.97650793650794,7,8,1,2,2.0782154854387,-1,0.294059667736292
2,2,19,2.32489795918367,7,6,-1,2,1.27324820682406,-1,0.359386019408703
2,2,20,2.71963718820862,7,7,0,2,0.973505277186632,-1,0.0159130766987801
2,2,21,3.00263038548753,7,7,0,2,1.92722510360181,-1,0.0509540569037199
2,2,22,2.90684807256236,7,7,0,3,0.605271836742759,-1,0.302428664639592
2,2,23,3.2043537414966,7,7,0,3,0.551324047148228,-1,0.0844773333519697
2,2,24,2.68625850340136,7,7,0,2,1.03535048104823,-1,0.227868270128965
2,2,25,2.64126984126984,7,7,0,3,0.425485292449594,-1,0.244413539767265
2,2,26,2.74430839002268,7,7,0,3,0.531556954607368,-1,0.121273964643478
2,2,27,0.0058049886621315,7,1,-6,1,6.59684641472995,-1,1.59801078774035
2,2,28,3.21596371882086,7,7,0,3,1.19185294024646,-1,1.32999652065337
2,2,29,3.04907029478458,7,7,0,3,1.19080051220953,-1,0.0804141573607922
2,2,30,3.35092970521542,7,8,1,3,0.475299434736371,-1,2.25228600017726
2,2,31,2.62820861678005,7,8,1,3,1.56255601346493,-1,0.0161381829530001
2,2,32,2.79365079365079,7,8,1,2,0.593547444790602,-1,0.157700328156352
2,2,33,2.2378231292517,7,6,-1,2,0.667397625744343,-1,0.106200801208615
2,2,34,3.00408163265306,7,8,1,2,0.788048962131143,-1,0.0159785039722919
2,2,35,3.03891156462585,7,8,1,2,0.791098032146692,-1,0.0758360158652067
2,2,36,2.73269841269841,7,7,0,3,1.92892774380744,-1,0.102409126237035
2,2,37,2.90249433106576,7,7,0,3,1.11547117494047,-1,0.273905029520392
2,2,38,2.98521541950113,7,7,0,3,1.70960632711649,-1,0.313631620258093
2,2,39,2.66884353741497,7,7,0,3,1.31827408820391,-1,0.0162243563681841
2,2,40,2.99537414965986,7,8,1,3,3.00414032116532,-1,3.34787914901972
2,2,41,3.48444444444444,7,8,1,3,1.3215249683708,-1,0.333670808002353
2,2,42,3.55990929705215,7,8,1,2,1.65203091874719,-1,0.226761121302843
2,2,43,3.13904761904762,7,8,1,2,1.97934868559241,-1,0.333165060728788
2,2,44,3.03600907029478,7,7,0,2,1.74145121313632,-1,0.186227427795529
2,2,45,1.72553287981859,7,5,-2,1,1.53176441043615,-1,0.375230481848121
2,2,46,2.8908843537415,7,7,0,2,0.914140539243817,-1,0.0322608351707458
2,2,47,2.780589569161,7,7,0,3,0.353535681962967,-1,0.342256316915154
2,2,48,2.80235827664399,7,7,0,3,1.08078691363335,-1,0.176461834460497
2,2,49,3.43800453514739,7,8,1,2,1.38713194429874,-1,0.267999617382884
2,2,50,2.73995464852608,7,8,1,2,0.71801651827991,-1,0.219913644716144
2,2,51,2.65868480725624,7,7,0,3,0.730115860700607,-1,0.200582314282656
2,2,52,2.54113378684807,7,7,0,3,0.314071085304022,-1,0.0799112319946289
2,2,53,3.51927437641723,7,10,3,1,1.14998788014054,-1,0.226389151066542
2,2,54,3.66439909297052,7,8,1,1,1.85900321416557,-1,0.267670271918178
2,2,55,2.25233560090703,7,7,0,2,7.77094467356801,-1,0.208579905331135
2,2,56,2.07528344671202,7,6,-1,2,0.751609055325389,-1,0.148599388077855
2,2,57,2.39891156462585,7,6,-1,3,0.693123891949654,-1,0.0983618218451738
2,2,58,2.6528798185941,7,7,0,3,1.53740946948528,-1,0.0159218404442072
2,2,59,2.67174603174603,7,7,0,3,4.97422022372484,-1,0.886612456291914
2,2,60,1.50204081632653,7,5,-2,2,3.04769916087389,-1,1.08424326777458
2,2,61,2.84444444444444,7,7,0,3,0.554968835785985,-1,0.729341354221106
2,2,62,2.98666666666667,7,7,0,3,0.549070587381721,-1,0.114771930500865
2,2,63,2.79655328798186,7,7,0,3,0.297955717891455,-1,0.0728719606995583
2,2,64,3.14775510204082,7,9,2,2,0.928592944517732,-1,0.469995871186256
2,2,65,2.7892970521542,7,8,1,2,1.05741892568767,-1,0.152393139898777
2,2,66,2.91120181405896,7,8,1,2,1.01927467621863,-1,0.17125029489398
2,2,67,2.84734693877551,7,7,0,3,0.627992520108819,-1,0.40682197548449
2,2,68,2.74285714285714,7,7,0,3,0.882028227671981,-1,0.0567725524306297
2,2,69,2.89668934240363,7,8,1,2,1.09902202896774,-1,1.38458555564284
2,2,70,2.68335600907029,7,7,0,3,0.582007024437189,-1,0.016521293669939
2,2,71,2.85024943310658,7,7,0,3,1.30018194019794,-1,0.0169796925038099
2,2,72,2.7631746031746,7,7,0,3,1.61098949052393,-1,2.01161457039416
2,2,73,2.78784580498866,7,7,0,3,1.58880149759352,-1,1.36697796545923
2,2,74,2.8734693877551,7,8,1,3,1.42011498101056,-1,1.13184818066657
2,2,75,2.76897959183673,7,7,0,3,0.849446060135961,-1,0.378348534926772
2,2,76,2.86621315192744,7,7,0,3,0.892891179770231,-1,0.307439740747213
2,2,77,2.88798185941043,7,7,0,3,0.29738275334239,-1,1.86306417360902
2,2,78,3.13904761904762,7,7,0,3,0.989409944042563,-1,1.70569633878767
2,2,79,3.14775510204082,7,8,1,2,1.10872898809612,-1,0.14679916203022
2,2,80,2.84589569160998,7,8,1,2,1.64493291638792,-1,0.0161375515162945
2,2,81,3.17968253968254,7,8,1,2,0.336577510461211,-1,0.0160070359706879
2,2,82,3.07809523809524,7,8,1,2,0.343900864943862,-1,0.0165662989020348
2,2,83,2.7675283446712,7,7,0,2,0.812355130910873,-1,0.823261614888906
2,2,84,2.69931972789116,7,8,1,2,0.689788416028023,-1,0.0330556947737932
2,2,85,3.33206349206349,7,8,1,1,0.964229881763458,-1,0.166497860103846
2,2,86,2.81396825396825,7,7,0,3,0.310227561742067,-1,1.34154991619289
2,2,87,2.99392290249433,7,8,1,2,0.426593024283648,-1,0.0168953612446785
2,2,88,3.08390022675737,7,8,1,2,0.887321894988418,-1,0.0222506374120712
2,2,89,2.80380952380952,7,7,0,3,1.39688615314662,-1,0.0885434951633215
2,2,90,2.80961451247166,7,7,0,3,0.653865808621049,-1,0.124582434073091
2,2,91,2.69641723356009,7,7,0,3,0.529559714719653,-1,0.0478359535336494
2,2,92,3.2972335600907,7,8,1,2,0.792619032785296,-1,0.201984023675323
2,2,93,2.81832199546485,7,7,0,2,0.449797628447413,-1,0.0436057429760695
2,2,94,2.5469387755102,7,7,0,3,3.56536395475268,-1,1.04670067131519
2,2,95,2.84879818594104,7,7,0,3,1.12732307240367,-1,0.460834423080087
2,2,96,1.97804988662132,7,6,-1,2,0.746602110564709,-1,0.128000164404511
2,2,97,2.49469387755102,7,6,-1,2,0.738890280947089,-1,1.43147218599916
2,2,98,2.58902494331066,7,7,0,2,1.23039727285504,-1,0.151876663789153
2,2,99,3.28126984126984,7,7,0,3,0.935832560062408,-1,0.341151041910052
2,2,100,3.07954648526077,7,8,1,2,0.647839114069939,-1,0.144034221768379
2,2,101,2.48308390022676,7,7,0,2,0.560856334865093,-1,0.823185635730624
2,2,102,2.96199546485261,7,7,0,2,1.45229780487716,-1,0.337573606520891
2,2,103,2.56725623582766,7,8,1,2,1.2993300948292,-1,0.370297914370894
2,2,104,2.37859410430839,7,7,0,2,0.780428875237703,-1,0.407913083210588
2,2,105,2.83573696145125,7,7,0,3,0.674276299774647,-1,0.521511103957891
2,2,106,2.78204081632653,7,7,0,3,1.26633918844163,-1,0.434062223881483
2,2,107,3.17097505668934,7,7,0,3,0.751488722860813,-1,0.196036731824279
2,2,108,3.08244897959184,7,8,1,3,0.74581166356802,-1,0.0952895637601614
2,2,109,3.03165532879819,7,8,1,2,0.457753485068679,-1,0.171693526208401
3,1,1,2.26104308390023,7,7,0,2,0.0142852235585451,-1,3.80529375374317
3,1,2,2.81251700680272,7,7,0,2,2.26616957597435,-1,1.64954211749136
3,1,3,2.94893424036281,7,7,0,2,0.015111168846488,-1,2.08739788457751
3,1,4,2.56725623582766,7,7,0,2,2.08751363307238,-1,1.01453463733196
3,1,5,2.16090702947846,7,6,-1,1,2.39370062015951,-1,0.850902691483498
3,1,6,3.08244897959184,7,8,1,2,1.4110398478806,-1,0.749002315104008
3,1,7,2.60934240362812,7,7,0,1,2.02649958059192,-1,0.460260508581996
3,1,8,2.32344671201814,7,6,-1,2,1.1685209274292,-1,0.395960552617908
3,1,9,2.16090702947846,7,6,-1,2,1.22041719779372,-1,0.285107923671603
3,1,10,2.58321995464853,7,7,0,2,0.0161456596106291,-1,1.31586753949523
3,1,11,2.61079365079365,7,7,0,2,0.0153383202850819,-1,0.720662983134389
3,1,12,2.56290249433107,7,6,-1,2,0.0149584766477346,-1,0.650732440873981
3,1,13,3.64263038548753,7,8,1,2,0.980101460590959,-1,2.4405923280865
3,1,14,2.55274376417234,7,6,-1,2,0.932330477982759,-1,0.984527068212628
3,1,15,2.41052154195011,7,6,-1,2,1.17199510708451,-1,2.02509168349206
3,1,16,2.56580498866213,7,6,-1,1,4.48076487518847,-1,0.267682751640677
3,1,17,2.35972789115646,7,6,-1,2,2.62871613353491,-1,1.88210305757821
3,1,18,1.83147392290249,7,6,-1,2,2.23773485608399,-1,0.66137083619833
3,1,19,2.66013605442177,7,7,0,1,2.36669866368175,-1,0.282173523679376
3,1,20,2.58902494331066,7,7,0,1,1.63953688926995,-1,0.15782437287271
3,1,21,2.54984126984127,7,7,0,3,0.759215833619237,-1,0.617281967774034
3,1,22,2.21895691609977,7,7,0,3,1.01450043171644,-1,0.368174202740192
3,1,23,2.27700680272109,7,6,-1,2,0.85349072702229,-1,0.813403144478798
3,1,24,2.33215419501134,7,6,-1,1,1.43018570914865,-1,0.230811472982168
3,1,25,1.85469387755102,7,6,-1,3,1.80032162182033,-1,3.13782180286944
3,1,26,2.44680272108844,7,6,-1,1,2.6185005530715,-1,0.234153043478727
3,1,27,1.97950113378685,7,6,-1,3,1.15575796365738,-1,0.397357957437634
3,1,28,2.39310657596372,7,6,-1,2,0.0154555682092905,-1,2.01322188414633
3,1,29,2.99972789115646,7,7,0,2,0.0158476401120424,-1,2.2047510240227
3,1,30,2.84299319727891,7,8,1,3,1.37581616267562,-1,0.258210603147745
3,1,31,3.13759637188209,7,8,1,3,1.29215740785003,-1,0.240982294082642
3,1,32,3.02294784580499,7,7,0,3,1.1755368579179,-1,0.897530075162649
3,1,33,2.76172335600907,7,7,0,3,1.10069732181728,-1,0.186589680612087
3,1,34,2.3437641723356,7,6,-1,3,1.27131103724241,-1,0.255660144612193
3,1,35,2.56580498866213,7,7,0,3,0.951369592919946,-1,0.0168619453907013
3,1,36,1.52816326530612,7,5,-2,1,1.66593585908413,-1,0.137048967182636
3,1,37,2.7892970521542,7,7,0,3,1.22671824134886,-1,0.789093276485801
3,1,38,2.40761904761905,7,7,0,3,1.20850789546967,-1,0.218377077952027
3,1,39,2.52226757369615,7,7,0,2,3.35763324424624,-1,0.016006126999855
3,1,40,2.33215419501134,7,6,-1,3,0.854626527056098,-1,0.768830701708794
3,1,41,2.69931972789116,7,7,0,3,1.16665693931282,-1,0.298010213300586
3,1,42,3.37705215419501,7,8,1,2,3.33294373191893,-1,1.0469929818064
3,1,43,2.99972789115646,7,8,1,3,1.53399690054357,-1,0.305119063705206
3,1,44,2.62820861678005,7,7,0,2,0.944844575598836,-1,0.285744937136769
3,1,45,2.18993197278912,7,8,1,1,1.90682549774647,-1,0.278123507276177
3,1,46,2.4497052154195,7,6,-1,1,1.14066028408706,-1,0.303978810086846
3,1,47,3.25804988662132,7,8,1,1,0.677201358601451,-1,0.203927952796221
3,1,48,2.68045351473923,7,7,0,3,0.887322140857577,-1,1.1964729372412
3,1,49,2.37278911564626,7,6,-1,1,2.65248305164278,-1,0.211957229301333
3,1,50,2.59482993197279,7,7,0,2,1.96300352923572,-1,0.238363597542048
3,1,51,2.48308390022676,7,6,-1,3,0.827963152900338,-1,0.774847628548741
3,1,52,3.00408163265306,7,8,1,2,1.45224322006106,-1,0.251643927767873
3,1,53,2.4671201814059,7,7,0,3,1.74724238365889,-1,1.1678271535784
3,1,54,2.30167800453515,7,7,0,3,0.221110014244914,-1,2.04059593752027
3,1,55,2.68625850340136,7,6,-1,2,1.32782126776874,-1,0.293499888852239
3,1,56,1.97369614512472,7,6,-1,2,1.17595165036619,-1,0.211105091497302
3,1,57,2.70512471655329,7,7,0,1,1.54993764683604,-1,0.20847868360579
3,1,58,2.59628117913832,7,7,0,3,1.0536123290658,-1,0.229061439633369
3,1,59,2.83718820861678,7,8,1,2,1.25853493623435,-1,0.0732005294412374
3,1,60,2.88943310657596,7,7,0,3,1.54306216165423,-1,0.476813295856118
3,1,61,2.23637188208617,7,6,-1,3,0.906939752399921,-1,0.473064413294196
3,1,62,2.79074829931973,7,7,0,2,0.956535620614886,-1,0.161236222833395
3,1,63,2.67609977324263,7,8,1,1,0.897547533735633,-1,0.239105194807053
3,1,64,2.69931972789116,7,6,-1,2,1.60451490804553,-1,0.0519447103142738
3,1,65,2.42793650793651,7,6,-1,1,1.11552949994802,-1,0.330092165619135
3,1,66,2.81541950113379,7,7,0,3,2.87795798107982,-1,0.691285928711295
3,1,67,3.14049886621315,7,8,1,2,0.554357836022973,-1,0.183623930439353
3,1,68,3.31755102040816,7,8,1,1,1.62491270713508,-1,0.14320320636034
3,1,69,2.85895691609977,7,8,1,1,1.17033784464002,-1,0.205109851434827
3,1,70,2.47873015873016,7,7,0,3,1.46257284842432,-1,0.543477993458509
3,1,71,3.01133786848073,7,7,0,2,2.34725456498563,-1,0.310159599408507
3,1,72,2.81106575963719,7,8,1,1,0.866370666772127,-1,0.0645445100963116
3,1,73,2.39310657596372,7,6,-1,2,0.662723848596215,-1,1.22239461913705
3,1,74,2.41487528344671,7,7,0,1,0.556499410420656,-1,0.176738005131483
3,1,75,2.92281179138322,7,8,1,1,0.552963435649872,-1,0.163979953154922
3,1,76,2.30603174603175,7,7,0,1,0.698538431897759,-1,0.105360314249992
3,1,77,2.25814058956916,7,6,-1,2,1.66952993907034,-1,0.0167487431317568
3,1,78,2.74140589569161,7,8,1,1,1.060665871948,-1,0.269085375592113
3,1,79,3.24063492063492,7,8,1,1,0.877070719376206,-1,1.04398783482611
3,1,80,2.43954648526077,7,6,-1,2,0.370546039193869,-1,0.463803822174668
3,1,81,2.53242630385488,7,6,-1,1,1.66454128921032,-1,0.104771587997675
3,1,82,2.58467120181406,7,7,0,2,0.677794948220253,-1,0.614245541393757
3,1,83,2.9837641723356,7,8,1,2,0.956092583015561,-1,0.0164577681571245
3,1,84,2.68190476190476,7,6,-1,3,3.26375023089349,-1,0.246081667020917
3,1,85,3.10857142857143,7,8,1,1,0.886529162526131,-1,0.35664196126163
3,1,86,2.38875283446712,7,7,0,3,0.821899214759469,-1,0.736377898603678
3,1,87,3.05342403628118,7,8,1,1,0.677705269306898,-1,0.037943571805954
3,1,88,2.4584126984127,7,7,0,3,0.836616970598698,-1,0.541755964979529
3,1,89,2.67609977324263,7,7,0,3,1.07919185049832,-1,0.750539641827345
3,1,90,3.05197278911565,7,8,1,1,1.05332347564399,-1,0.0233950540423393
3,1,91,2.2552380952381,7,6,-1,1,1.03235775046051,-1,0.016147879883647
3,1,92,2.74140589569161,7,8,1,1,1.213842863217,-1,0.0166228413581848
3,1,93,3.32480725623583,7,10,3,1,0.554627984762192,-1,0.09626679494977
3,1,94,1.98530612244898,7,6,-1,1,1.54950232617557,-1,0.0168799441307783
3,1,95,2.5730612244898,7,6,-1,3,0.59470534324646,-1,2.31860448420048
3,1,96,2.34231292517007,7,7,0,2,1.0662145037204,-1,0.179097762331367
3,1,97,2.18412698412698,7,6,-1,3,1.47003493271768,-1,0.830235989764333
3,1,98,2.4540589569161,7,7,0,3,2.5464645344764,-1,0.204917142167687
3,1,99,3.13469387755102,7,8,1,2,1.47823203168809,-1,0.245337864384055
3,1,100,1.72988662131519,7,5,-2,2,1.27393947169185,-1,0.624652756378055
3,1,101,2.61224489795918,7,7,0,2,1.40368403680623,-1,0.13360945507884
3,1,102,2.09560090702948,7,6,-1,1,1.14880642667413,-1,0.0869472324848175
3,1,103,2.70077097505669,7,7,0,2,0.015325078740716,-1,3.82040637172759
3,1,104,2.62095238095238,7,7,0,3,1.00646449625492,-1,0.327406531199813
3,1,105,2.84444444444444,7,7,0,1,0.702837819233537,-1,0.24089072458446
3,1,106,2.50340136054422,7,7,0,3,0.725602990016341,-1,0.788792802020907
3,1,107,3.15791383219955,7,8,1,1,1.35656289197505,-1,0.248731750994921
3,1,108,2.62820861678005,7,7,0,3,2.02653725631535,-1,0.0261403322219849
3,1,109,2.53097505668934,7,6,-1,3,0.858795175328851,-1,0.67474913969636
3,1,110,1.07392290249433,7,3,-4,1,3.25231717340648,-1,0.73031453602016
3,2,1,3.61650793650794,11,9,-2,3,0.910600738599896,-1,0.270520249381661
3,2,2,3.72825396825397,11,9,-2,2,0.0139519479125738,-1,0.886464877054095
3,2,3,3.64698412698413,11,9,-2,2,1.06082734651864,-1,0.114675879478455
3,2,4,3.31319727891156,11,9,-2,2,0.883011411875486,-1,0.856234461069107
3,2,5,3.39736961451247,11,9,-2,2,0.601483408361673,-1,0.164547959342599
3,2,6,3.34947845804989,11,9,-2,1,0.824258215725422,-1,0.0170133784413338
3,2,7,3.48009070294785,11,9,-2,2,1.88588311709464,-1,0.572845824062824
3,2,8,2.66448979591837,11,7,-4,1,0.898760687559843,-1,0.185401005670428
3,2,9,3.80807256235828,11,10,-1,1,1.84420062787831,-1,0.222779424861073
3,2,10,4.1708843537415,11,11,0,2,0.0160261243581772,-1,1.35308322124183
3,2,11,3.98367346938775,11,10,-1,2,1.58182500489056,-1,0.447065794840455
3,2,12,5.36526077097506,11,12,1,1,2.29989405162632,-1,0.233865337446332
3,2,13,5.10258503401361,11,13,2,1,0.845929553732276,-1,0.127785479649901
3,2,14,3.57732426303855,11,9,-2,2,0.840329067781568,-1,0.344195075333118
3,2,15,4.32181405895692,11,11,0,1,0.745435189455748,-1,0.247289225459099
3,2,16,3.92707482993197,11,10,-1,2,1.603485846892,-1,0.244341369718313
3,2,17,2.9968253968254,11,9,-2,1,1.3449433632195,-1,0.0469934847205877
3,2,18,4.20426303854875,11,10,-1,1,1.03123180940747,-1,0.0158849824219942
3,2,19,3.52072562358277,11,10,-1,1,0.75265783444047,-1,0.0161108244210482
3,2,20,4.61641723356009,11,11,0,1,1.81997579336166,-1,0.0524398609995842
3,2,21,4.11573696145125,11,11,0,1,1.28214967809618,-1,0.206745330244303
3,2,22,3.55990929705215,11,9,-2,2,1.77179606072605,-1,0.254107061773539
3,2,23,3.44235827664399,11,9,-2,1,3.80285224877298,-1,0.529662508517504
3,2,24,2.91120181405896,11,8,-3,1,1.02893441542983,-1,0.204664416611195
3,2,25,3.5178231292517,11,10,-1,2,1.05323512479663,-1,1.26122633554041
3,2,26,3.25804988662132,11,8,-3,1,1.0500329118222,-1,0.0166218690574169
3,2,27,4.28263038548753,11,10,-1,2,0.780778799206018,-1,1.09662661142647
3,2,28,3.66585034013605,11,10,-1,2,0.748075056821108,-1,0.232118928804994
3,2,29,4.02721088435374,11,10,-1,2,0.0796675756573677,-1,1.46388384141028
3,2,30,4.20716553287982,11,12,1,2,1.07066803984344,-1,0.310111783444881
3,2,31,4.8950566893424,11,11,0,2,1.62846509926021,-1,0.582188667729497
3,2,32,3.92997732426304,11,10,-1,3,2.38534877449274,-1,0.658259464427829
3,2,33,4.38857142857143,11,11,0,2,0.901723207905889,-1,0.0166962686926126
3,2,34,4.1447619047619,11,11,0,3,1.41008121147752,-1,0.203775081783533
3,2,35,4.09687074829932,11,11,0,1,1.35240054130554,-1,0.163653152063489
3,2,36,0.280090702947846,11,1,-10,1,2.19793189503253,-1,1.71927401982248
3,2,37,4.49741496598639,11,11,0,2,0.96217948757112,-1,3.97620400600135
3,2,38,3.46702947845805,11,10,-1,2,1.1877668146044,-1,0.614803681150079
3,2,39,4.46403628117914,11,11,0,2,0.761050326749682,-1,0.725259589031339
3,2,40,3.55120181405896,11,9,-2,3,1.53126965276897,-1,0.2158073335886
3,2,41,4.60625850340136,11,10,-1,3,1.25654336810112,-1,0.16195635125041
3,2,42,3.90240362811791,11,10,-1,2,1.41775891929865,-1,0.832748448476195
3,2,43,4.24925170068027,11,10,-1,3,0.874872423708439,-1,0.0668327230960131
3,2,44,3.18113378684807,11,9,-2,2,2.3713040612638,-1,0.149148130789399
3,2,45,4.37260770975057,11,12,1,1,1.16422042809427,-1,0.199217898771167
3,2,46,4.44371882086168,11,10,-1,1,0.83353041857481,-1,0.801923228427768
3,2,47,3.66294784580499,11,9,-2,1,1.22291744872928,-1,0.01630056835711
3,2,48,3.51927437641723,11,9,-2,1,0.952209120616317,-1,0.0159513615071774
3,2,49,3.6281179138322,11,10,-1,1,0.834326684474945,-1,0.0163409002125263
3,2,50,3.60634920634921,11,9,-2,1,0.636641476303339,-1,0.0167246535420418
3,2,51,3.40607709750567,11,9,-2,2,0.69542608037591,-1,0.536371359601617
3,2,52,3.80517006802721,11,9,-2,1,0.817637132480741,-1,0.0168406013399363
3,2,53,3.54394557823129,11,9,-2,1,1.08786261640489,-1,0.0476691164076328
3,2,54,3.80517006802721,11,10,-1,2,1.91459478065372,-1,0.512444745749235
3,2,55,3.93433106575964,11,10,-1,2,0.676061881706119,-1,0.0159077029675245
3,2,56,4.85877551020408,11,12,1,1,0.734021350741386,-1,0.016701377928257
3,2,57,3.68907029478458,11,9,-2,1,0.509042236953974,-1,1.51580657996237
3,2,58,3.78340136054422,11,10,-1,2,1.07829635962844,-1,0.356977839022875
3,2,59,4.29424036281179,11,12,1,1,1.05561899021268,-1,0.016417920589447
3,2,60,4.41614512471655,11,11,0,1,1.84485269151628,-1,0.829731434583664
3,2,61,4.65414965986395,11,12,1,1,1.16556075960398,-1,0.016899187117815
3,2,62,3.50621315192744,11,9,-2,2,1.99617513269186,-1,0.247145161032677
3,2,63,3.619410430839,11,10,-1,1,0.735487703233957,-1,0.132749948650599
3,2,64,3.52072562358277,11,9,-2,3,1.20155643485487,-1,0.396032769232988
3,2,65,3.37560090702948,11,9,-2,3,1.88646350614727,-1,0.0166611261665821
3,2,66,3.1956462585034,11,8,-3,3,1.4518473315984,-1,0.283840859308839
3,2,67,3.59909297052154,11,11,0,3,1.91197418235242,-1,0.21158822439611
3,2,68,4.00108843537415,11,10,-1,3,1.055818118155,-1,0.0965579617768526
3,2,69,4.69768707482993,11,11,0,2,0.627478811889887,-1,0.051923954859376
3,2,70,0.0058049886621315,11,1,-10,1,4.18434993177652,-1,0.299618763849139
3,2,71,4.71800453514739,11,14,3,2,2.04329509288073,-1,1.0424104500562
3,2,72,4.97922902494331,11,12,1,2,1.35997069999576,-1,0.372151508927345
3,2,73,3.31174603174603,11,9,-2,2,2.90185042843223,-1,0.322966422885656
3,2,74,3.72680272108844,11,10,-1,3,0.400405703112483,-1,0.243285255506635
3,2,75,4.03446712018141,11,10,-1,2,2.02383246459067,-1,0.711170043796301
3,2,76,4.22748299319728,11,12,1,2,1.81716293469071,-1,0.130199098959565
3,2,77,4.27972789115646,11,10,-1,2,2.36755249649286,-1,2.64977280795574
3,2,78,4.07365079365079,11,9,-2,1,1.00403744727373,-1,0.357619129121304
3,2,79,4.41324263038549,11,11,0,2,0.854741483926773,-1,0.254452573135495
3,2,80,3.67891156462585,11,9,-2,3,1.08635240606964,-1,0.150093415752053
3,2,81,4.62657596371882,11,11,0,2,1.21016979031265,-1,0.229062473401427
3,2,82,3.83419501133787,11,10,-1,2,2.79400212876499,-1,0.163312187418342
3,2,83,3.7209977324263,11,9,-2,3,0.947706758975983,-1,0.113594360649586
3,2,84,3.28272108843537,11,8,-3,2,1.03170798718929,-1,0.776241313666105
3,2,85,3.44526077097506,11,10,-1,3,0.992979999631643,-1,0.252523522824049
3,2,86,3.59909297052154,11,11,0,3,0.541881358250976,-1,0.243714645504951
3,2,87,4.24634920634921,11,10,-1,3,1.00224978663027,-1,0.0614481810480356
3,2,88,3.43800453514739,11,10,-1,2,0.873548427596688,-1,0.20984479598701
3,2,89,3.56716553287982,11,9,-2,1,1.19802959635854,-1,0.0164548382163048
3,2,90,3.45687074829932,11,10,-1,2,1.1341718826443,-1,0.0195186231285334
3,2,91,4.64979591836735,11,11,0,2,0.0156325306743383,-1,3.33703878335655
3,2,92,3.57297052154195,11,9,-2,1,1.11081016808748,-1,0.0166907086968422
3,2,93,3.64553287981859,11,10,-1,2,1.01946329139173,-1,0.016265906393528
3,2,94,4.76734693877551,11,12,1,1,1.49248966015875,-1,0.546475261449814
4,1,1,5.43201814058957,11,14,3,2,2.69811106001725,-1,3.27015856601065
4,1,2,3.59619047619048,11,9,-2,2,1.7747009480081,-1,3.45415582199348
4,1,3,5.11274376417234,11,12,1,2,2.44053974599228,-1,2.0439666149905
4,1,4,4.44662131519274,11,11,0,3,2.15249952400336,-1,3.06480277699302
4,1,5,4.08235827664399,11,9,-2,1,3.55564350899658,-1,2.06287033599801
4,1,6,4.2681179138322,11,11,0,1,3.52490441699047,-1,1.32143811997958
4,1,7,4.1534693877551,11,10,-1,2,2.56859060298302,-1,1.96688124901266
4,1,8,3.23047619047619,11,9,-2,2,2.20349905299372,-1,3.9533643219911
4,1,9,4.66866213151927,11,12,1,2,2.75765213297564,-1,0.507571009016829
4,1,10,4.35519274376417,11,12,1,3,3.21468530601123,-1,4.31182827200973
4,1,11,3.87773242630385,11,9,-2,2,2.33590404101415,-1,0.349652901000809
4,1,12,4.46258503401361,11,10,-1,2,3.78850532099023,-1,0.405536003992893
4,1,13,4.20426303854875,11,11,0,2,4.44615888700355,-1,2.29956343097729
4,1,14,5.0184126984127,11,12,1,2,4.04666615501628,-1,1.29317187998095
4,1,15,4.3697052154195,11,11,0,2,1.39647439998225,-1,0.211287562007783
4,1,16,4.33052154195011,11,10,-1,3,2.29955072101438,-1,1.8771394219948
4,1,17,3.88353741496599,11,11,0,2,2.7186752090056,-1,2.18345105700428
4,1,18,4.07219954648526,11,11,0,1,2.70519906500704,-1,0.504343987995526
4,1,19,4.78331065759637,11,12,1,2,2.40006097301375,-1,0.358655732008629
4,1,20,4.8108843537415,11,12,1,3,2.8131924829795,-1,1.70425574100227
4,1,21,4.36825396825397,11,11,0,2,3.14050840900745,-1,1.25829543900909
4,1,22,4.74412698412698,11,13,2,1,3.90735867799958,-1,0.568641888996353
4,1,23,4.78040816326531,11,13,2,1,3.41934115201002,-1,1.49481238701264
4,1,24,5.18385487528345,11,14,3,1,1.75556376800523,-1,0.323929256002884
4,1,25,2.91845804988662,11,8,-3,3,1.95491346399649,-1,3.40247724601068
4,1,26,3.92707482993197,11,10,-1,3,1.94982294601505,-1,2.02292905800277
4,1,27,4.33052154195011,11,12,1,2,1.74128170299809,-1,1.69388052402064
4,1,28,5.05179138321996,11,12,1,2,1.2983822519891,-1,1.60546089999843
4,1,29,4.88489795918367,11,12,1,2,2.69109263797873,-1,1.95472263402189
4,1,30,5.36235827664399,11,15,4,1,1.90261080299388,-1,0.320170769991819
4,1,31,4.77460317460317,11,12,1,2,2.76780579797924,-1,0.333607363980263
4,1,32,5.2302947845805,11,13,2,1,4.06235708398162,-1,0.365281661011977
4,1,33,1.75891156462585,11,5,-6,1,2.59017715998925,-1,0.0173889930010773
4,1,34,4.18394557823129,11,11,0,3,2.35297914000694,-1,0.415708320011618
4,1,35,3.48009070294785,11,9,-2,3,2.71411791999708,-1,0.546117622987367
4,1,36,3.15501133786848,11,9,-2,3,3.18504454399226,-1,0.988832704984816
4,1,37,3.5265306122449,11,9,-2,2,4.35292093601311,-1,3.11357194499578
4,1,38,3.55990929705215,11,10,-1,2,2.28262151102535,-1,2.15843041299377
4,1,39,4.0431746031746,11,11,0,1,4.53557122801431,-1,0.450294331996702
4,1,40,3.21741496598639,11,10,-1,2,2.06736910698237,-1,0.462824760004878
4,1,41,4.44662131519274,11,11,0,2,1.47118287798367,-1,1.28389774900279
4,1,42,3.46557823129252,11,10,-1,2,1.37624881698866,-1,0.857894947024761
4,1,43,4.2507029478458,11,10,-1,2,1.30893708299845,-1,0.168599803990219
4,1,44,5.14031746031746,11,13,2,1,2.90485984500265,-1,0.471374998014653
4,1,45,3.76308390022676,11,9,-2,2,3.34045449600671,-1,2.28839849500218
4,1,46,4.28263038548753,11,11,0,2,3.52082859099028,-1,0.445190711005125
4,1,47,3.81823129251701,11,10,-1,2,3.35094952199142,-1,0.547954235982616
4,1,48,4.72090702947846,11,12,1,1,1.86029405301088,-1,0.456236751982942
4,1,49,4.33632653061224,11,11,0,2,0.621408143022563,-1,0.567541700991569
4,1,50,5.38848072562358,11,14,3,1,1.57203342599678,-1,0.380868829990504
4,1,51,5.19401360544218,11,12,1,2,0.721306127990829,-1,0.190469360997668
4,1,52,4.17378684807256,11,11,0,1,2.55490758499946,-1,1.17688233198714
4,1,53,4.08090702947846,11,10,-1,3,3.41852593599469,-1,1.05112687801011
4,1,54,3.81823129251701,11,10,-1,2,1.41542330599623,-1,1.8397038889816
4,1,55,5.98784580498866,11,15,4,1,0.95322378599667,-1,0.420619115990121
4,1,56,4.92698412698413,11,11,0,2,0.613439737993758,-1,0.0224928460083902
4,1,57,4.99664399092971,11,12,1,2,1.8410780080012,-1,0.564699541981099
4,1,58,4.31891156462585,11,11,0,3,2.30572858900996,-1,1.67573913800879
4,1,59,4.00399092970522,11,12,1,2,5.53923282900359,-1,1.28958705000696
4,1,60,4.84281179138322,11,13,2,3,1.73469083101372,-1,2.43038459599484
4,1,61,5.62503401360544,11,14,3,3,2.60750972898677,-1,2.15536498100846
4,1,62,5.02857142857143,11,13,2,2,3.35858772302163,-1,0.336946391005768
4,1,63,5.30866213151927,11,14,3,2,1.87220584598253,-1,1.08286428701831
4,1,64,5.83691609977324,11,13,2,2,2.51965496098273,-1,0.776038849988254
4,1,65,5.49877551020408,11,14,3,3,2.33131574702566,-1,2.61797791198478
4,1,66,5.00390022675737,11,13,2,2,3.06097433602554,-1,1.66270502601401
4,1,67,5.6584126984127,11,14,3,1,1.17252684599953,-1,1.38902146497276
4,1,68,4.19410430839002,11,11,0,2,2.13453199499054,-1,0.560851842019474
4,1,69,4.67156462585034,11,10,-1,3,1.1371394089947,-1,1.15527077100705
4,1,70,5.3362358276644,11,14,3,1,1.03543156199157,-1,0.240583783015609
4,1,71,5.40444444444444,11,13,2,2,0.695917996024946,-1,0.143872346001444
4,1,72,3.60489795918367,11,9,-2,1,1.14742502200534,-1,0.0173116369987838
4,1,73,5.37396825396825,11,14,3,2,1.73004311899422,-1,0.602276294026524
4,2,1,2.63256235827664,7,7,0,3,2.8528624669998,-1,1.82176205801079
4,2,2,3.00988662131519,7,8,1,2,2.58034688100452,-1,1.84161507201497
4,2,3,4.91972789115646,7,12,5,1,3.58306102800998,-1,0.111792151001282
4,2,4,3.45687074829932,7,8,1,2,2.19529919300112,-1,1.8648506400059
4,2,5,3.35673469387755,7,10,3,2,0.93358122400241,-1,0.936432852991857
4,2,6,4.98358276643991,7,11,4,1,1.24543879702105,-1,0.442129154020222
4,2,7,3.23773242630385,7,9,2,1,0.932932744995924,-1,0.36162432198762
4,2,8,2.7631746031746,7,8,1,3,2.60542284400435,-1,0.370346042996971
4,2,9,4.17233560090703,7,10,3,3,3.58826656799647,-1,1.66221755900187
4,2,10,2.35537414965986,7,6,-1,1,2.46708027398563,-1,0.356462946016109
4,2,11,3.38430839002268,7,9,2,2,1.6981616349949,-1,1.62169291399186
4,2,12,2.69931972789116,7,7,0,3,1.75760001898743,-1,1.72611637102091
4,2,13,4.03301587301587,7,9,2,3,1.37482968700351,-1,0.680277334991843
4,2,14,3.4292970521542,7,9,2,3,0.851974814984715,-1,1.51258231099928
4,2,15,3.41333333333333,7,9,2,3,0.863815300981514,-1,1.68731717701303
4,2,16,3.5178231292517,7,9,2,2,0.869528833020013,-1,0.94175298200571
4,2,17,3.23047619047619,7,8,1,2,2.43514625000535,-1,0.358222247014055
4,2,18,3.17532879818594,7,8,1,3,2.57535504200496,-1,0.970827463024762
4,2,19,4.26666666666667,7,11,4,1,1.4988278769888,-1,0.381258400011575
4,2,20,3.62666666666667,7,9,2,2,1.36959160902188,-1,0.986785915010842
4,2,21,2.86185941043084,7,8,1,2,1.47259546999703,-1,0.323698491993127
4,2,22,3.32335600907029,7,10,3,2,0.719257938006194,-1,0.709385793015826
4,2,23,4.62512471655329,7,11,4,3,3.82466246798867,-1,0.520168224000372
4,2,24,3.0853514739229,7,8,1,3,0.861473636003211,-1,1.35671390901553
4,2,25,2.6790022675737,7,8,1,3,0.7939148049918,-1,1.43559030198958
4,2,26,2.88507936507937,7,7,0,3,0.61024788900977,-1,0.682567181997001
4,2,27,3.37269841269841,7,8,1,3,0.525964443018893,-1,0.524974639003631
4,2,28,2.88507936507937,7,9,2,3,0.339620079990709,-1,1.20275795500493
4,2,29,2.64707482993197,7,7,0,3,0.508129852998536,-1,0.483064259984531
4,2,30,4.50176870748299,7,11,4,1,1.12032902298961,-1,0.348798863997217
4,2,31,3.8356462585034,7,10,3,1,0.578954249998787,-1,0.477740700007416
4,2,32,3.0984126984127,7,7,0,2,0.639124042994808,-1,0.903164437011583
4,2,33,2.83283446712018,7,8,1,3,1.14255113498075,-1,0.496943909005495
4,2,34,4.1534693877551,7,11,4,1,0.5101813620131,-1,0.363199832994724
4,2,35,4.65269841269841,7,12,5,1,1.25927150799544,-1,0.465274703979958
4,2,36,3.12018140589569,7,7,0,3,0.547023813007399,-1,0.447796864988049
4,2,37,4.7847619047619,7,12,5,1,0.564621836005244,-1,0.857004343008157
4,2,38,3.60925170068027,7,10,3,2,0.957649435993517,-1,0.552414058009163
4,2,39,2.91410430839002,7,8,1,2,2.35425143601606,-1,0.626033056003507
4,2,40,2.48018140589569,7,7,0,1,1.82684370302013,-1,2.29513408601633
4,2,41,3.78049886621315,7,9,2,2,3.20700194497476,-1,0.368636205006624
4,2,42,5.92979591836735,7,15,8,1,2.10570337501122,-1,0.354602865991183
4,2,43,3.89659863945578,7,11,4,1,2.68079294500058,-1,0.785888918995624
4,2,44,3.19419501133787,7,7,0,1,2.95620741599123,-1,0.29580421699211
4,2,45,3.9590022675737,7,10,3,2,0.807880314008798,-1,0.201323128014337
4,2,46,2.62385487528345,7,7,0,3,1.16709711300791,-1,0.425903434981592
4,2,47,3.0984126984127,7,8,1,3,0.665593326004455,-1,0.0566899499972351
4,2,48,2.95619047619048,7,8,1,3,0.813322100992082,-1,0.310389819991542
4,2,49,3.27111111111111,7,9,2,2,2.06296926099458,-1,0.274727087991778
4,2,50,2.71383219954649,7,7,0,3,0.823199373000534,-1,0.496915429015644
4,2,51,2.91845804988662,7,8,1,2,1.84325626099599,-1,0.279130289010936
4,2,52,3.36834467120181,7,9,2,3,1.19671428698348,-1,0.493023652001284
4,2,53,2.52807256235828,7,7,0,3,0.616874844010454,-1,3.78505228701397
4,2,54,4.13895691609977,7,11,4,3,0.801767486002063,-1,0.0166230610047933
4,2,55,3.68036281179138,7,9,2,2,4.54617064900231,-1,1.4035202920204
4,2,56,2.89959183673469,7,8,1,2,0.655458824010566,-1,1.32008023298113
4,2,57,3.47573696145125,7,8,1,3,0.990536547993543,-1,1.38372302200878
4,2,58,3.09696145124717,7,8,1,3,0.669389300019247,-1,1.08516724000219
4,2,59,2.46421768707483,7,7,0,3,0.520696510007838,-1,0.197802704002243
4,2,60,4.70204081632653,7,12,5,1,1.10894073199597,-1,0.305971397989197
4,2,61,3.23337868480726,7,8,1,2,1.53284429601626,-1,1.04675586597295
4,2,62,3.02294784580499,7,9,2,2,1.47110354699544,-1,0.229101710981922
4,2,63,3.66294784580499,7,8,1,3,0.698160563973943,-1,1.40735098000732
4,2,64,3.93433106575964,7,9,2,3,2.68820325599518,-1,0.321953906008275
4,2,65,3.59619047619048,7,10,3,2,2.3412559920107,-1,0.675972807977814
4,2,66,4.37551020408163,7,11,4,3,1.31639616499888,-1,0.255335142981494
4,2,67,1.97514739229025,7,5,-2,3,0.784239859000081,-1,0.0829012119793333
4,2,68,2.11301587301587,7,6,-1,3,0.619621869002003,-1,0.259384812990902
4,2,69,3.07374149659864,7,7,0,3,1.83572021100554,-1,1.50321651197737
4,2,70,2.85315192743764,7,7,0,3,0.785722408996662,-1,0.07539082900621
4,2,71,2.58031746031746,7,6,-1,2,1.61827499500941,-1,0.216657196986489
4,2,72,4.14621315192744,7,10,3,3,0.772591131011723,-1,0.791989997000201
4,2,73,3.39591836734694,7,9,2,3,0.991298414999619,-1,0.361663769988809
4,2,74,4.51337868480726,7,11,4,3,0.8649510339892,-1,0.806358784000622
4,2,75,3.26240362811791,7,9,2,2,1.80544041498797,-1,0.178586957015796
4,2,76,3.9502947845805,7,10,3,3,0.989850225014379,-1,1.35927507397719
4,2,77,4.13315192743764,7,12,5,3,0.408753055991838,-1,0.0166667320008855
4,2,78,3.57297052154195,7,8,1,2,1.88670236300095,-1,0.433277694013668
4,2,79,3.85886621315193,7,9,2,3,0.668420689995401,-1,1.19672773499042
4,2,80,2.95183673469388,7,8,1,2,1.08661757301888,-1,0.22732670197729
4,2,81,6.03428571428571,7,14,7,3,0.766765403008321,-1,0.263187581993407
4,2,82,6.33179138321995,7,16,9,3,0.871355230017798,-1,0.102187122014584
4,2,83,4.00399092970522,7,9,2,3,0.587101404991699,-1,1.244177821005
4,2,84,3.50331065759637,7,9,2,3,2.44180918499478,-1,0.387185138009954
4,2,85,4.1621768707483,7,10,3,2,2.17361301000346,-1,0.427224868006306
4,2,86,1.83582766439909,7,6,-1,2,1.16195118200267,-1,0.30001268000342
4,2,87,3.83854875283447,7,10,3,3,0.825636099994881,-1,1.417577530985
4,2,88,3.86176870748299,7,10,3,2,0.855270658998052,-1,0.347989711997798
4,2,89,3.4075283446712,7,8,1,2,1.31816197300213,-1,0.375923228013562
4,2,90,2.95328798185941,7,7,0,2,1.33794957498321,-1,0.284027465007966
4,2,91,2.65433106575964,7,8,1,2,1.72825084900251,-1,0.988174760015681
4,2,92,3.70068027210884,7,9,2,2,1.35033715399913,-1,3.89648611002485
4,2,93,3.48589569160998,7,10,3,2,2.20942149398616,-1,0.335260336985812
4,2,94,4.61786848072562,7,13,6,2,2.4302230719768,-1,0.386216334998608
4,2,95,3.63102040816327,7,9,2,2,0.761890083987964,-1,0.293369142018491
5,1,1,4.38131519274376,11,11,0,3,2.2433485519141,-1,2.79592123255134
5,1,2,3.55120181405896,11,10,-1,2,2.03740349598229,-1,2.67660279385746
5,1,3,3.41913832199546,11,9,-2,3,3.39585722610354,-1,2.09827702119946
5,1,4,4.50757369614512,11,10,-1,2,1.48290235921741,-1,1.33691165968776
5,1,5,3.80662131519274,11,10,-1,3,1.79865121096373,-1,1.63996046036482
5,1,6,4.700589569161,11,13,2,3,1.80577425472438,-1,1.48654885776341
5,1,7,4.97487528344671,11,12,1,3,1.8571747969836,-1,0.512136740610003
5,1,8,4.0475283446712,11,10,-1,3,0.867223745211959,-1,1.14726869389415
5,1,9,4.25650793650794,11,11,0,3,1.56653288379312,-1,1.07313029654324
5,1,10,3.58458049886621,11,9,-2,2,1.5086624789983,-1,1.36183566600084
5,1,11,4.13170068027211,11,10,-1,2,2.65525683015585,-1,1.44591456092894
5,1,12,5.07210884353742,11,12,1,1,2.72843575663865,-1,1.20318703912199
5,1,13,3.57587301587302,11,10,-1,2,3.40005619451404,-1,1.47261857613921
5,1,14,4.38131519274376,11,12,1,3,1.59539630077779,-1,0.589977631345391
5,1,15,4.40453514739229,11,10,-1,3,4.53626018390059,-1,1.92980840615928
5,1,16,4.7092970521542,11,12,1,2,1.11632416769862,-1,1.54554658569396
5,1,17,4.21297052154195,11,10,-1,2,2.08537438325584,-1,0.570613900199533
5,1,18,4.34213151927438,11,11,0,3,2.22655637562275,-1,1.20263410545886
5,1,19,3.46122448979592,11,10,-1,3,1.30709896609187,-1,0.913241213187575
5,1,20,4.52789115646259,11,12,1,2,1.59969572722912,-1,1.6732850689441
5,1,21,3.71519274376417,11,10,-1,1,1.85236087813973,-1,2.6649028621614
5,1,22,4.50757369614512,11,12,1,1,1.42448873445392,-1,1.16782432794571
5,1,23,4.51337868480726,11,11,0,1,1.35871015302837,-1,1.25911580212414
5,1,24,4.3653514739229,11,11,0,2,1.50478349626064,-1,1.35068498924375
5,1,25,3.97786848072562,11,10,-1,2,1.42081057652831,-1,1.08462836034596
5,1,26,3.69632653061224,11,10,-1,2,1.83872753940523,-1,3.53714824840426
5,1,27,4.56562358276644,11,13,2,1,1.22589675523341,-1,1.38015328161418
5,1,28,3.87337868480726,11,10,-1,3,1.25380000285804,-1,0.388810608536005
5,1,29,3.85015873015873,11,9,-2,3,1.39911125972867,-1,1.15542765893042
5,1,30,5.09678004535147,11,12,1,2,0.938047979027033,-1,0.469186911359429
5,1,31,5.07936507936508,11,12,1,2,1.23976246453822,-1,0.79172502271831
5,1,32,4.42775510204082,11,12,1,2,2.09578400850296,-1,0.854071768000722
5,1,33,4.61641723356009,11,13,2,2,1.51363524980843,-1,1.92740637250245
5,1,34,6.05750566893424,11,14,3,1,1.1061599124223,-1,1.23207164928317
5,1,35,4.70784580498866,11,12,1,3,2.12836084328592,-1,0.452931785956025
5,1,36,6.38258503401361,11,15,4,3,1.41755321994424,-1,1.31580179743469
5,1,37,5.30866213151927,11,14,3,2,1.80986898764968,-1,1.54055579565465
5,1,38,5.07356009070295,11,13,2,2,1.19325207918882,-1,2.1329305972904
5,1,39,5.08226757369615,11,13,2,1,1.40617405623198,-1,0.598746202886105
5,1,40,5.91818594104308,11,14,3,1,1.1500037573278,-1,0.403531806543469
5,1,41,4.93859410430839,11,12,1,2,1.3626544047147,-1,3.26196363382041
5,1,42,5.3275283446712,11,13,2,3,1.37779471836984,-1,0.0862078852951527
5,1,43,5.56843537414966,11,14,3,3,0.843752091750503,-1,0.563967114314437
5,1,44,6.00671201814059,11,16,5,3,1.63315362296999,-1,0.360608169808984
5,1,45,5.31736961451247,11,13,2,1,0.538298033177853,-1,1.43272726424038
5,1,46,4.6831746031746,11,11,0,2,0.771145297214389,-1,1.19960010237992
5,1,47,4.94294784580499,11,12,1,1,1.65207014232874,-1,0.34730170853436
5,1,48,4.64544217687075,11,11,0,3,1.65236541628838,-1,0.92255968041718
5,1,49,5.41460317460317,11,15,4,2,0.824201289564371,-1,1.14669627510011
5,1,50,4.89650793650794,11,12,1,2,2.164441306144,-1,1.58249346911907
5,1,51,6.841179138322,11,16,5,3,2.35168611630797,-1,0.953029273077846
5,1,52,5.16643990929705,11,14,3,2,1.55363302305341,-1,1.77398945949972
5,1,53,4.75718820861678,11,12,1,2,1.09643584489822,-1,0.62985472753644
5,1,54,4.18394557823129,11,10,-1,3,1.56021603569388,-1,0.613017426803708
5,1,55,5.89351473922903,11,15,4,1,0.580568853765726,-1,0.935589415952563
5,1,56,4.08526077097506,11,10,-1,2,2.2681151535362,-1,1.48293896764517
5,1,57,4.41034013605442,11,12,1,3,1.43230770155787,-1,0.703943394124508
5,1,58,4.18104308390023,11,10,-1,3,1.34712147340178,-1,2.4552811216563
5,1,59,4.12154195011338,11,10,-1,3,0.76835735142231,-1,0.501103088259697
5,1,60,3.70648526077097,11,11,0,3,2.57662017829716,-1,0.755711644887924
5,1,61,4.72816326530612,11,13,2,3,3.11365901678801,-1,0.708152379840612
5,1,62,4.97197278911565,11,12,1,2,2.586784042418,-1,1.53196503221989
5,1,63,4.15927437641723,11,10,-1,2,1.12170083262026,-1,0.270388051867485
5,1,64,3.97496598639456,11,10,-1,2,1.26094668731093,-1,0.237045228481293
5,1,65,3.44961451247166,11,9,-2,2,0.745532486587763,-1,0.895083412528038
5,1,66,4.47274376417234,11,12,1,1,1.64039836637676,-1,0.480863559991121
5,1,67,4.23473922902494,11,10,-1,1,0.655806606635451,-1,0.513830317184329
5,1,68,3.27691609977324,11,9,-2,2,0.864100506529212,-1,0.559763416647911
5,1,69,3.33641723356009,11,9,-2,3,1.09061058051884,-1,1.05078729242086
5,1,70,3.45977324263039,11,9,-2,2,0.813554694876075,-1,1.64728518202901
5,1,71,1.6021768707483,11,5,-6,1,1.08216872066259,-1,0.313634289428592
5,1,72,3.4162358276644,11,8,-3,2,1.06892410665751,-1,0.235109070315957
5,1,73,3.88498866213152,11,9,-2,2,0.36769432015717,-1,0.156573930755258
5,1,74,3.58893424036281,11,9,-2,3,0.923386860638857,-1,0.408360589295626
5,1,75,4.86893424036281,11,11,0,1,1.15667114779353,-1,0.192202443256974
5,1,76,4.79056689342404,11,12,1,3,1.38838269561529,-1,0.15226187184453
5,1,77,3.81823129251701,11,10,-1,2,1.2706572022289,-1,0.73465527407825
5,1,78,3.70938775510204,11,9,-2,2,0.723280657082796,-1,0.336844429373741
5,1,79,4.42775510204082,11,10,-1,1,0.380964791402221,-1,0.16031570546329
5,1,80,4.85442176870748,11,12,1,3,0.572400184348226,-1,0.696601156145334
5,1,81,3.58893424036281,11,10,-1,2,0.972173675894737,-1,0.239953665062785
5,2,1,2.92426303854875,7,7,0,3,0.933237127959728,-1,1.57125231251121
5,2,2,3.57297052154195,7,8,1,3,0.944131156429648,-1,0.316825855523348
5,2,3,2.61659863945578,7,7,0,3,0.641499593853951,-1,0.746192831546068
5,2,4,2.93877551020408,7,7,0,3,0.779418591409922,-1,0.671312425285578
5,2,5,2.49324263038549,7,7,0,3,0.928625121712685,-1,0.661149926483631
5,2,6,2.17541950113379,7,7,0,2,1.20471362955868,-1,0.077380632981658
5,2,7,2.60643990929705,7,8,1,3,1.2391232252121,-1,0.266236998140812
5,2,8,3.61360544217687,7,10,3,2,1.09613962844014,-1,0.41428603976965
5,2,9,3.11147392290249,7,8,1,1,1.02839426323771,-1,0.747571529820561
5,2,10,2.52517006802721,7,8,1,2,0.604383479803801,-1,0.343843061476946
5,2,11,2.73269841269841,7,7,0,2,0.606194088235497,-1,0.818802824243903
5,2,12,2.27990929705215,7,7,0,2,0.507741674780846,-1,0.850993800908327
5,2,13,2.98666666666667,7,8,1,2,0.921931993216276,-1,0.725152060389519
5,2,14,2.92136054421769,7,7,0,3,0.541044268757105,-1,0.369745559990406
5,2,15,2.07092970521542,7,6,-1,3,0.843511078506708,-1,0.405004892498255
5,2,16,2.84154195011338,7,8,1,3,1.08307583071291,-1,0.850158760324121
5,2,17,2.06657596371882,7,6,-1,2,0.70792505517602,-1,0.969919288530946
5,2,18,2.83283446712018,7,7,0,2,0.647840272635221,-1,0.361051576212049
5,2,19,3.05777777777778,7,8,1,1,0.518207263201475,-1,0.325322650372982
5,2,20,2.49759637188209,7,7,0,1,1.18631380051374,-1,0.206538846716285
5,2,21,2.49904761904762,7,7,0,3,0.568440048024058,-1,1.31510754488409
5,2,22,2.38585034013605,7,7,0,2,1.27888748422265,-1,0.319873565807939
5,2,23,2.99537414965986,7,8,1,3,1.18368666060269,-1,0.0158775150775909
5,2,24,2.89814058956916,7,8,1,3,1.09322481788695,-1,0.203887781128287
5,2,25,3.41768707482993,7,9,2,1,0.362731095403433,-1,0.279721589758992
5,2,26,1.98675736961451,7,5,-2,3,0.432997770607471,-1,0.26644486002624
5,2,27,2.47292517006803,7,6,-1,3,0.881495194509625,-1,0.0163662601262331
5,2,28,2.73850340136054,7,7,0,1,0.419104602187872,-1,0.605818262323737
5,2,29,2.90104308390023,7,8,1,1,0.633245099335909,-1,0.194838747382164
5,2,30,2.04770975056689,7,6,-1,3,1.43617084622383,-1,0.676434442400932
5,2,31,4.49741496598639,7,12,5,1,1.53715841658413,-1,0.325476219877601
5,2,32,2.47002267573696,7,6,-1,3,1.08975309692323,-1,0.257032532244921
5,2,33,2.14639455782313,7,7,0,2,0.701947109773755,-1,0.0764667708426714
5,2,34,2.8778231292517,7,7,0,1,0.750244669616222,-1,0.338319960981607
5,2,35,2.2552380952381,7,6,-1,3,0.706867247819901,-1,0.983769010752439
5,2,36,4.17378684807256,7,10,3,1,0.801407355815172,-1,0.187153665348887
5,2,37,3.33931972789116,7,8,1,2,1.56612428091466,-1,0.577137872576714
5,2,38,2.61804988662132,7,6,-1,3,1.47438680753112,-1,0.273083690553904
5,2,39,2.71238095238095,7,7,0,1,0.795545566827059,-1,0.277713071554899
5,2,40,2.15074829931973,7,6,-1,3,1.07399774156511,-1,0.560546552762389
5,2,41,2.15655328798186,7,6,-1,2,1.29940436780453,-1,0.0727205909788609
5,2,42,2.95909297052154,7,7,0,3,0.842155931517482,-1,0.139698008075356
5,2,43,2.59482993197279,7,7,0,3,0.856485277414322,-1,1.00151693634689
5,2,44,2.40907029478458,7,7,0,3,0.642296044155955,-1,0.388173066079617
5,2,45,2.25959183673469,7,6,-1,3,0.554798617959023,-1,0.240033788606524
5,2,46,2.56145124716553,7,6,-1,3,0.994532652199268,-1,0.406484777107835
5,2,47,1.94321995464853,7,6,-1,2,1.07135131768882,-1,0.0167509596794844
5,2,48,2.64997732426304,7,7,0,1,0.652564909309149,-1,0.0347206480801105
5,2,49,2.59337868480726,7,7,0,3,0.785565230995417,-1,0.0167731679975986
5,2,50,2.50049886621315,7,6,-1,2,0.753723235800862,-1,0.0708808936178684
5,2,51,2.69931972789116,7,8,1,2,1.51421793177724,-1,0.736350728198886
5,2,52,2.94458049886621,7,7,0,1,0.614737469702959,-1,0.0395913124084473
5,2,53,2.88798185941043,7,8,1,2,1.01386079005897,-1,0.182716669514775
5,2,54,2.83428571428571,7,7,0,2,0.543697925284505,-1,0.228917369619012
5,2,55,2.79655328798186,7,7,0,2,1.55155209265649,-1,0.0834109280258417
5,2,56,1.96934240362812,7,6,-1,3,1.05349236354232,-1,0.254063304513693
5,2,57,1.86630385487528,7,6,-1,3,1.13093455135822,-1,0.0161802917718887
5,2,58,2.56,7,7,0,2,0.661181347444654,-1,0.652424631640315
5,2,59,2.69206349206349,7,8,1,3,0.75557248853147,-1,0.616874754428864
5,2,60,2.4453514739229,7,7,0,3,0.661943759769201,-1,0.958313399925828
5,2,61,2.81977324263039,7,8,1,2,0.965423179790378,-1,0.241162428632379
5,2,62,2.80235827664399,7,7,0,3,1.416404126212,-1,0.258973335847259
5,2,63,2.339410430839,7,7,0,2,1.57756776362658,-1,0.676218088716269
5,2,64,2.58902494331066,7,7,0,1,0.353039709851146,-1,0.229252969846129
5,2,65,2.26104308390023,7,7,0,1,1.01962511986494,-1,0.190706202760339
5,2,66,2.3568253968254,7,6,-1,2,0.669881729409099,-1,0.133000183850527
5,2,67,3.0809977324263,7,7,0,3,0.950556211173534,-1,0.121819853782654
5,2,68,2.87927437641723,7,8,1,2,0.884505545720458,-1,0.115047605708241
5,2,69,1.57460317460317,7,6,-1,3,0.598060376942158,-1,0.0166993141174316
5,2,70,2.41922902494331,7,7,0,1,0.345826286822557,-1,0.0630383919924498
5,2,71,2.45551020408163,7,7,0,3,0.532520273700356,-1,0.129635665565729
5,2,72,3.36399092970522,7,9,2,1,0.659113058820367,-1,0.138043962419033
5,2,73,2.28426303854875,7,6,-1,3,0.338233821094036,-1,0.0159838274121284
5,2,74,2.70222222222222,7,7,0,2,0.68603902310133,-1,0.0542223118245602
5,2,75,2.41922902494331,7,6,-1,2,1.57418961077929,-1,0.761072335764766
5,2,76,2.81541950113379,7,8,1,2,2.17892140336335,-1,1.25335080549121
5,2,77,2.77913832199547,7,7,0,3,0.610885571688414,-1,1.13235931284726
5,2,78,3.73696145124717,7,9,2,1,1.11747863888741,-1,0.1530402880162
5,2,79,2.07238095238095,7,6,-1,3,0.405932065099478,-1,0.111340237781405
5,2,80,3.57006802721088,7,9,2,1,0.153080219402909,-1,0.341863378882408
5,2,81,3.69632653061224,7,9,2,1,0.106711558997631,-1,0.016255022957921
5,2,82,2.10285714285714,7,5,-2,3,0.339488234370947,-1,0.0159489177167416
5,2,83,1.75746031746032,7,5,-2,3,0.760722430422902,-1,0.0159081425517797
5,2,84,2.09560090702948,7,6,-1,3,0.456641247496009,-1,0.176636723801494
5,2,85,2.17251700680272,7,5,-2,3,0.487212497740984,-1,1.05513630993664
5,2,86,1.54557823129252,7,4,-3,3,0.906528282910585,-1,0.0159966610372066
5,2,87,2.32054421768707,7,7,0,3,0.333434604108334,-1,0.0168201550841331
5,2,88,3.8487074829932,7,9,2,1,0.860072188079357,-1,0.0676506832242012
5,2,89,2.70077097505669,7,6,-1,3,0.343582265079021,-1,1.09366246499121
5,2,90,2.8691156462585,7,7,0,3,0.514223823323846,-1,0.784135585650802
5,2,91,1.60507936507937,7,5,-2,3,1.52050709910691,-1,0.0305424407124519
5,2,92,2.52952380952381,7,7,0,2,1.00494442507625,-1,0.414608880877495
5,2,93,2.54113378684807,7,6,-1,3,0.43919213861227,-1,0.192778453230858
5,2,94,2.15074829931973,7,6,-1,2,0.758190544322133,-1,0.0167878959327936
5,2,95,2.66303854875283,7,7,0,1,0.539672775194049,-1,0.096519885584712
5,2,96,2.03174603174603,7,6,-1,3,0.369600728154182,-1,0.0158746540546417
5,2,97,2.31473922902494,7,6,-1,2,0.476925345137715,-1,0.326362531632185
5,2,98,1.96498866213152,7,5,-2,2,0.418563550338149,-1,0.0600909069180489
5,2,99,2.2508843537415,7,6,-1,3,0.147226063534617,-1,0.0159081295132637
5,2,100,2.81832199546485,7,8,1,3,1.06949788890779,-1,0.876263288781047
5,2,101,2.43374149659864,7,7,0,2,1.67818312160671,-1,0.016074126586318
5,2,102,2.95328798185941,7,8,1,3,1.02254450879991,-1,0.0163417141884565
5,2,103,2.91700680272109,7,7,0,2,1.8075840305537,-1,1.24056941829622
5,2,104,2.81251700680272,7,8,1,1,0.94201042316854,-1,0.0194813348352909
5,2,105,2.78349206349206,7,7,0,3,0.755918415263295,-1,0.111629923805594
5,2,106,2.47873015873016,7,6,-1,1,0.589373366907239,-1,0.0319180004298687
5,2,107,3.2,7,8,1,3,0.470705801621079,-1,0.120976204052567
5,2,108,2.45696145124717,7,7,0,2,0.912753988057375,-1,0.0294190607964993
5,2,109,2.45260770975057,7,7,0,3,0.615902496501803,-1,0.0983737520873547
5,2,110,2.79655328798186,7,8,1,2,0.620063638314605,-1,0.126854602247477
5,2,111,3.12888888888889,7,7,0,3,1.01787669584155,-1,0.11553531140089
5,2,112,2.32780045351474,7,6,-1,2,1.09560336172581,-1,0.127218373119831
5,2,113,2.27845804988662,7,6,-1,2,0.232177956029773,-1,0.480208480730653
5,2,114,3.04616780045351,7,7,0,3,0.261779069900513,-1,0.0160337015986443
5,2,115,3.01569160997732,7,7,0,3,1.50693201646209,-1,0.0168023500591516
5,2,116,2.5556462585034,7,7,0,2,0.515363363549113,-1,0.698804726824164
5,2,117,2.62385487528345,7,7,0,2,0.809781819581985,-1,0.124869130551815
5,2,118,2.57451247165533,7,7,0,1,0.50265697017312,-1,0.102145940065384
5,2,119,2.25233560090703,7,6,-1,1,0.318553982302547,-1,0.0676888283342123
5,2,120,2.5643537414966,7,6,-1,1,0.527559144422412,-1,0.198905548080802
5,2,121,2.19718820861678,7,6,-1,2,0.419978830963373,-1,0.486183760687709
5,2,122,2.29732426303855,7,7,0,3,0.230060324072838,-1,0.0484974756836891
5,2,123,2.780589569161,7,7,0,3,0.186584869399667,-1,0.583126863464713
5,2,124,2.14639455782313,7,7,0,1,0.547635801136494,-1,0.160223798826337
6,1,1,2.33795918367347,7,6,-1,1,3.24057555757463,-1,1.06268549337983
6,1,2,2.69206349206349,7,7,0,3,1.02417193725705,-1,0.97863619402051
6,1,3,2.99827664399093,7,7,0,3,0.92135308124125,-1,1.66313969343901
6,1,4,3.01859410430839,7,8,1,3,0.747812055051327,-1,0.815868051722646
6,1,5,3.07954648526077,7,8,1,2,2.79144596494734,-1,1.34551417641342
6,1,6,2.95328798185941,7,8,1,2,2.64527684077621,-1,4.65208707936108
6,1,7,2.87927437641723,7,7,0,3,1.36662630923092,-1,1.77129628695548
6,1,8,2.96634920634921,7,7,0,3,0.861925091594458,-1,2.65478929504752
6,1,9,2.79219954648526,7,7,0,3,1.41088217869401,-1,0.852951984852552
6,1,10,2.85750566893424,7,7,0,3,0.806303326040506,-1,0.473486881703138
6,1,11,2.91120181405896,7,7,0,3,0.901286387816072,-1,0.306534934788942
6,1,12,2.79219954648526,7,7,0,3,0.708102002739906,-1,0.299497963860631
6,1,13,3.06213151927438,7,7,0,3,0.59105883166194,-1,2.03460619412363
6,1,14,2.58757369614512,7,7,0,2,2.47434548847377,-1,1.38310627639294
6,1,15,2.72108843537415,7,8,1,1,1.55807984434068,-1,1.11217591166496
6,1,16,2.67609977324263,7,6,-1,3,1.85024446807802,-1,0.305063767358661
6,1,17,2.82848072562358,7,7,0,2,1.86688640899956,-1,1.47543868049979
6,1,18,2.70802721088435,7,7,0,1,2.76067274808884,-1,1.57048486731946
6,1,19,2.36698412698413,7,7,0,1,4.73899918608367,-1,0.970129176974297
6,1,20,3.2087074829932,7,7,0,2,2.25669244304299,-1,1.23260685056448
6,1,21,2.31764172335601,7,7,0,2,3.06033200584352,-1,1.53865918703377
6,1,22,2.39165532879819,7,6,-1,2,2.29798190295696,-1,1.08846595697105
6,1,23,2.66884353741497,7,7,0,3,1.45872740074992,-1,0.483115857467055
6,1,24,2.93297052154195,7,7,0,2,3.58796038664877,-1,1.0040446985513
6,1,25,2.71963718820862,7,7,0,2,1.38010334968567,-1,0.470974719151855
6,1,26,3.08390022675737,7,7,0,3,0.950887575745583,-1,1.755176063627
6,1,27,3.33351473922902,7,7,0,3,1.15879067964852,-1,1.02663473412395
6,1,28,2.73705215419501,7,7,0,3,2.31764282844961,-1,0.904833110049367
6,1,29,3.17532879818594,7,8,1,3,2.15405066497624,-1,1.22119967825711
6,1,30,2.35392290249433,7,7,0,3,0.817227624356747,-1,0.450696438550949
6,1,31,2.43809523809524,7,7,0,2,2.03606499545276,-1,1.88359531760216
6,1,32,2.63981859410431,7,8,1,1,2.15714412741363,-1,1.05660046450794
6,1,33,2.69641723356009,7,7,0,2,1.58338456042111,-1,0.394889624789357
6,1,34,2.64126984126984,7,7,0,1,2.04861959069967,-1,0.263335846364498
6,1,35,2.77333333333333,7,7,0,3,1.24225401133299,-1,0.281737580895424
6,1,36,3.01278911564626,7,7,0,3,1.07948859035969,-1,0.503944637253881
6,1,37,2.72689342403628,7,7,0,3,0.755214175209403,-1,0.224108869209886
6,1,38,2.99537414965986,7,7,0,3,1.90698389336467,-1,0.303030809387565
6,1,39,2.99102040816327,7,7,0,3,0.557013416662812,-1,0.249185089021921
6,1,40,2.90829931972789,7,8,1,1,2.37020830065012,-1,1.09991587512195
6,1,41,2.95328798185941,7,7,0,2,2.6599962990731,-1,0.235291231423616
6,1,42,2.61079365079365,7,7,0,2,1.2422951888293,-1,0.259317992255092
6,1,43,2.58902494331066,7,7,0,2,3.1048191152513,-1,1.28590247035027
6,1,44,2.87056689342404,7,7,0,2,1.29214094392955,-1,0.202984239906073
6,1,45,2.60643990929705,7,7,0,3,0.721409726887941,-1,0.262363206595182
6,1,46,3.05487528344671,7,7,0,3,1.06724684126675,-1,0.218020282685757
6,1,47,2.6528798185941,7,7,0,3,0.992589816451073,-1,0.0180020593106747
6,1,48,2.97070294784581,7,8,1,1,2.10987488552928,-1,0.961549807339907
6,1,49,3.03165532879819,7,7,0,2,1.17795269563794,-1,0.148509748280048
6,1,50,2.6659410430839,7,7,0,3,1.25241027027369,-1,0.186599316075444
6,1,51,3.12308390022676,7,7,0,2,0.886602321639657,-1,0.255007028579712
6,1,52,2.77913832199547,7,7,0,3,0.710009643808007,-1,0.212765071541071
6,1,53,2.59628117913832,7,7,0,3,2.04698915593326,-1,0.28628989122808
6,1,54,2.5512925170068,7,7,0,3,0.604799138382077,-1,0.182702720165253
6,1,55,2.91265306122449,7,8,1,1,1.52345019206405,-1,1.04016851261258
6,1,56,2.85750566893424,7,8,1,1,1.13024602457881,-1,0.848663186654449
6,1,57,2.61950113378685,7,7,0,3,1.13898057490587,-1,0.175641739740968
6,1,58,3.34512471655329,7,7,0,1,2.70058362558484,-1,0.0159428287297487
6,1,59,2.56725623582766,7,7,0,2,2.63442608341575,-1,0.186431696638465
6,1,60,2.62820861678005,7,7,0,1,1.67397075518966,-1,0.0898642633110285
6,1,61,2.59918367346939,7,7,0,2,1.66108994744718,-1,0.0827883668243885
6,1,62,2.63546485260771,7,7,0,3,2.41031537950039,-1,1.46662615984678
6,1,63,2.64417233560091,7,7,0,3,0.887137610465288,-1,0.24743565171957
6,1,64,2.62965986394558,7,8,1,1,1.34182250872254,-1,0.0159523915499449
6,1,65,3.0897052154195,7,8,1,1,1.19292516633868,-1,0.0162540152668953
6,1,66,3.96190476190476,7,10,3,1,1.15413253568113,-1,1.33518951758742
6,1,67,2.57741496598639,7,7,0,2,0.843260521069169,-1,0.252401035279036
6,1,68,3.0984126984127,7,7,0,2,1.01690666005015,-1,0.313752749934793
6,1,69,3.0940589569161,7,7,0,3,1.1720581445843,-1,0.262349799275398
6,1,70,2.41052154195011,7,7,0,2,0.913819015026093,-1,0.464936768636107
6,1,71,2.56,7,7,0,2,2.5525581445545,-1,2.71571387536824
6,1,72,2.74575963718821,7,8,1,1,1.38880934007466,-1,1.10270626284182
6,1,73,2.82267573696145,7,7,0,2,1.50346172228456,-1,0.291972499340773
6,1,74,2.9750566893424,7,7,0,3,1.85190177336335,-1,0.218813095241785
6,1,75,2.46421768707483,7,7,0,3,1.53341146931052,-1,0.040975634008646
6,1,76,2.7892970521542,7,7,0,3,0.92381670512259,-1,0.233025543391705
6,1,77,2.67609977324263,7,8,1,1,1.3219407517463,-1,1.06159624643624
6,1,78,2.39600907029478,7,7,0,3,1.19298559240997,-1,0.331484138965607
6,1,79,2.52081632653061,7,8,1,1,1.63978803157806,-1,1.28927661851048
6,1,80,2.85315192743764,7,7,0,2,1.02979902178049,-1,0.309301894158125
6,1,81,2.62965986394558,7,8,1,1,1.05199512839317,-1,0.284951968118548
6,1,82,2.74285714285714,7,7,0,2,0.884905096143484,-1,0.25781087577343
6,1,83,2.92861678004535,7,7,0,2,1.4152301158756,-1,0.119624547660351
6,1,84,2.3524716553288,7,7,0,1,2.15938772447407,-1,0.225600011646748
6,1,85,3.19709750566893,7,7,0,2,0.77917155995965,-1,0.255220947787166
6,1,86,2.76027210884354,7,7,0,2,1.58944635279477,-1,1.1846426576376
6,1,87,2.7631746031746,7,7,0,2,0.806061645969748,-1,0.185620743781328
6,1,88,2.90394557823129,7,7,0,3,1.30414137616754,-1,0.190689016133547
6,1,89,3.09696145124717,7,7,0,2,0.625086948275566,-1,0.266548059880733
6,1,90,2.66448979591837,7,8,1,1,1.17065691202879,-1,0.0855974722653627
6,1,91,2.74721088435374,7,7,0,2,3.77883961051702,-1,0.378704953938723
6,2,1,3.641179138322,11,11,0,1,1.29157613962889,-1,0.203915577381849
6,2,2,3.87337868480726,11,10,-1,2,0.872316932305694,-1,0.0628934521228075
6,2,3,4.71219954648526,11,11,0,1,1.09820036403835,-1,0.0167006179690361
6,2,4,3.87628117913832,11,12,1,1,0.993655722588301,-1,0.1972625721246
6,2,5,4.19845804988662,11,11,0,2,1.50117913633585,-1,0.23423358798027
6,2,6,3.92852607709751,11,11,0,1,1.04775322787464,-1,0.0403167493641376
6,2,7,4.23473922902494,11,11,0,2,0.509328477084637,-1,0.187569541856647
6,2,8,4.54385487528345,11,11,0,2,1.0171325225383,-1,0.160457087680697
6,2,9,3.91691609977324,11,10,-1,2,0.39293310791254,-1,0.220934323966503
6,2,10,4.11428571428571,11,10,-1,2,0.436640536412597,-1,0.212807206436992
6,2,11,3.84290249433107,11,10,-1,2,0.55679308436811,-1,0.231238786131144
6,2,12,3.78630385487528,11,9,-2,2,0.990289553999901,-1,0.287446960806847
6,2,13,4.54820861678005,11,11,0,2,0.680972008034587,-1,0.440536361187696
6,2,14,4.52643990929705,11,12,1,1,1.36318037472665,-1,0.165250526741147
6,2,15,3.92707482993197,11,10,-1,2,0.776285437867045,-1,0.652412151917815
6,2,16,4.19120181405896,11,10,-1,2,0.861188737675548,-1,0.308518713340163
6,2,17,3.80662131519274,11,10,-1,2,1.06796730495989,-1,0.449602512642741
6,2,18,4.57868480725624,11,11,0,2,0.652008570730686,-1,0.238266780972481
6,2,19,3.74131519274376,11,10,-1,2,0.446490000933409,-1,0.271666476503015
6,2,20,3.94884353741497,11,10,-1,3,2.56635512039065,-1,0.224569154903293
6,2,21,4.86748299319728,11,11,0,2,2.56605035997927,-1,0.720906604081392
6,2,22,4.22893424036281,11,11,0,3,1.35160061903298,-1,0.420097220689058
6,2,23,4.48145124716553,11,11,0,3,0.946518898010254,-1,0.287612495943904
6,2,24,3.80662131519274,11,10,-1,2,1.09289955534041,-1,0.209269214421511
6,2,25,3.8312925170068,11,10,-1,3,0.782486755400896,-1,1.28991336002946
6,2,26,4.50902494331066,11,11,0,3,0.77425672672689,-1,0.290092889219522
6,2,27,4.5946485260771,11,12,1,2,1.49309473857284,-1,0.65042463131249
6,2,28,4.97342403628118,11,12,1,1,1.9947233684361,-1,0.155199894681573
6,2,29,4.43791383219955,11,12,1,1,1.00049221888185,-1,0.0824132282286882
6,2,30,4.1447619047619,11,10,-1,2,0.804507572203875,-1,0.238299695774913
6,2,31,4.79637188208617,11,11,0,2,0.714440202340484,-1,0.273037776350975
6,2,32,3.96770975056689,11,11,0,2,0.885265056043863,-1,0.738782551139593
6,2,33,4.23038548752834,11,10,-1,1,1.48173452727497,-1,0.223707642406225
6,2,34,4.62367346938776,11,11,0,2,1.24798438511789,-1,0.152106279507279
6,2,35,4.42485260770975,11,11,0,2,0.56121332757175,-1,0.237735606729984
6,2,36,4.52643990929705,11,11,0,3,0.804559592157602,-1,0.255744241178036
6,2,37,4.90666666666667,11,12,1,2,1.29750074632466,-1,0.0483311600983143
6,2,38,4.14040816326531,11,12,1,2,0.530154062435031,-1,0.0169655159115791
6,2,39,3.6107029478458,11,11,0,2,0.49576349183917,-1,0.220856659114361
6,2,40,4.44807256235828,11,11,0,3,1.01144491881132,-1,0.149124771356583
6,2,41,4.18975056689342,11,11,0,2,0.600092282518744,-1,0.249697063118219
6,2,42,4.04027210884354,11,10,-1,3,0.444393215700984,-1,0.74878310970962
6,2,43,4.23619047619048,11,11,0,2,5.16562367603183,-1,2.01438380777836
6,2,44,3.76888888888889,11,10,-1,1,1.31559411436319,-1,0.193833325058222
6,2,45,4.14621315192744,11,11,0,2,1.9240226726979,-1,0.408201517537236
6,2,46,4.75138321995465,11,12,1,1,1.64273049123585,-1,0.0366020295768976
6,2,47,4.45678004535147,11,11,0,2,0.750406958162785,-1,0.226895228028297
6,2,48,4.29278911564626,11,11,0,2,0.704485004767776,-1,0.205843405798078
6,2,49,4.58884353741497,11,12,1,2,0.974238030612469,-1,0.17786692455411
6,2,50,4.3827664399093,11,11,0,2,0.930623512715101,-1,0.327608868479729
6,2,51,4.34213151927438,11,11,0,2,1.2438909560442,-1,0.412147236987948
6,2,52,3.96045351473923,11,10,-1,2,0.802653312683105,-1,0.1746567171067
6,2,53,4.281179138322,11,11,0,1,1.12525269202888,-1,0.0273382607847452
6,2,54,3.88498866213152,11,10,-1,2,1.92877027392387,-1,0.158149227499962
6,2,55,4.51628117913832,11,11,0,2,0.016465537250042,-1,4.19162765145302
6,2,56,4.1578231292517,11,10,-1,1,1.86059159226716,-1,0.219363493844867
6,2,57,4.19120181405896,11,11,0,1,1.13466810807586,-1,0.0355878472328186
6,2,58,4.50176870748299,11,11,0,2,0.618778675794601,-1,0.957534348592162
6,2,59,4.09687074829932,11,11,0,1,0.94315779209137,-1,0.742316832765937
6,2,60,4.97052154195011,11,11,0,3,1.07462600246072,-1,0.185368103906512
6,2,61,4.13895691609977,11,11,0,2,0.753673637285829,-1,0.350428169593215
6,2,62,3.99092970521542,11,11,0,2,1.16178276948631,-1,0.108544938266277
6,2,63,4.0649433106576,11,10,-1,2,1.74436910822988,-1,0.354673383757472
6,2,64,5.10984126984127,11,13,2,2,0.0163508411496878,-1,1.08711359463632
6,2,65,4.64834467120181,11,11,0,1,1.39761141501367,-1,0.408348999917507
6,2,66,4.63238095238095,11,11,0,1,1.36777738668025,-1,0.0158833544701338
6,2,67,3.9502947845805,11,11,0,2,0.805825775489211,-1,0.12790909409523
6,2,68,4.41179138321995,11,10,-1,1,1.04932348616421,-1,0.0571149084717035
6,2,69,4.17814058956916,11,11,0,3,0.959224343299866,-1,0.242088180035353
6,2,70,3.80517006802721,11,10,-1,2,1.0199790392071,-1,0.0158723872154951
6,2,71,4.39873015873016,11,12,1,2,1.06997280009091,-1,0.0159711576998234
6,2,72,4.61351473922902,11,11,0,2,0.730684842914343,-1,0.0479559078812599
6,2,73,4.06349206349206,11,12,1,1,1.4654139764607,-1,0.0403850451111794
6,2,74,4.76879818594104,11,11,0,3,0.814781166613102,-1,0.0234661288559437
6,2,75,4.65705215419501,11,12,1,1,1.06471220590174,-1,0.0169290769845247
6,2,76,4.7049433106576,11,12,1,1,1.07420237362385,-1,0.0159164369106293
6,2,77,3.89659863945578,11,10,-1,2,0.689836705103517,-1,0.280869655311108
6,2,78,4.24344671201814,11,11,0,2,0.479646541178226,-1,0.0317995399236679
6,2,79,4.73251700680272,11,11,0,3,0.963701812550426,-1,0.14406855031848
6,2,80,4.79056689342404,11,11,0,2,1.10140122659504,-1,0.0170554798096418
6,2,81,4.08961451247166,11,11,0,2,0.714079050347209,-1,0.0169272366911173
6,2,82,4.69043083900227,11,11,0,3,0.779680954292417,-1,0.0955486726015806
6,2,83,4.56272108843537,11,11,0,3,0.543875243514776,-1,0.116527356207371
6,2,84,4.68462585034014,11,11,0,2,0.616549188271165,-1,0.0826756209135056
6,2,85,4.97487528344671,11,12,1,1,0.940961645916104,-1,0.0887880120426416
6,2,86,4.64253968253968,11,12,1,1,0.824889222159982,-1,0.0203163474798203
6,2,87,4.69913832199546,11,12,1,1,0.609355514869094,-1,0.0166779085993767
6,2,88,4.21877551020408,11,11,0,2,1.18497346527874,-1,0.0657852608710527
6,2,89,4.94875283446712,11,11,0,1,2.09988091513515,-1,0.153899921104312
6,2,90,4.58739229024943,11,11,0,1,0.861907107755542,-1,0.118232440203428
6,2,91,3.94884353741497,11,11,0,2,1.04940463416278,-1,0.0159657895565033
6,2,92,4.33052154195011,11,11,0,1,0.799233578145504,-1,0.0169374197721481
6,2,93,4.28698412698413,11,12,1,2,4.5098341666162,-1,0.208986030891538
6,2,94,4.23183673469388,11,11,0,2,1.06867646053433,-1,0.669812669977546
7,1,1,3.35238095238095,7,8,1,2,1.34673423098866,-1,0.984061830997234
7,1,2,4.28263038548753,7,11,4,1,1.47625520499423,-1,0.823329559992999
7,1,3,5.02131519274376,7,12,5,1,2.46925528199063,-1,0.544508595019579
7,1,4,2.64852607709751,7,7,0,3,1.27350388097693,-1,0.910557877010433
7,1,5,2.97360544217687,7,9,2,3,0.597233532025712,-1,0.519097181997495
7,1,6,3.75437641723356,7,8,1,2,0.613726183015388,-1,5.1825552470109
7,1,7,3.28852607709751,7,7,0,3,1.67297990299994,-1,1.66913549299352
7,1,8,2.74285714285714,7,8,1,3,0.57147964197793,-1,0.200152160017751
7,1,9,2.94603174603175,7,7,0,3,0.656034651008667,-1,0.453726216015639
7,1,10,2.44244897959184,7,7,0,3,0.378609512001276,-1,0.92721391399391
7,1,11,2.90104308390023,7,8,1,3,0.0678086430125404,-1,0.49390850099735
7,1,12,2.81106575963719,7,8,1,1,1.4217989250028,-1,0.556786449014908
7,1,13,3.05777777777778,7,7,0,3,1.02180998699623,-1,1.3414657410176
7,1,14,2.5643537414966,7,7,0,3,0.800448024005163,-1,1.04990457100212
7,1,15,2.46566893424036,7,7,0,3,1.35601650900207,-1,1.02136117898044
7,1,16,2.50775510204082,7,7,0,1,0.652519655996002,-1,2.74677499901736
7,1,17,2.86621315192744,7,7,0,3,1.57658674701815,-1,0.362296959006926
7,1,18,2.81106575963719,7,7,0,3,0.593765730009181,-1,0.417775287001859
7,1,19,3.00408163265306,7,8,1,2,1.61852381401695,-1,0.0477167690114584
7,1,20,2.68625850340136,7,8,1,3,0.454447905009147,-1,0.117929491010727
7,1,21,2.50485260770975,7,7,0,2,2.03409990898217,-1,0.150749928987352
7,1,22,2.64997732426304,7,7,0,3,0.207427133020246,-1,0.177359730994795
7,1,23,2.83138321995465,7,7,0,3,0.42759606501204,-1,0.438644323992776
7,1,24,2.77768707482993,7,7,0,3,0.151927741011605,-1,0.852986556012183
7,1,25,2.85895691609977,7,7,0,3,1.23127707501408,-1,0.974853271007305
7,1,26,2.9968253968254,7,8,1,1,1.11182253999868,-1,0.692697085003601
7,1,27,2.72253968253968,7,7,0,3,0.677909418009222,-1,0.359031322004739
7,1,28,2.39020408163265,7,7,0,3,0.348653146997094,-1,0.120914739993168
7,1,29,2.69496598639456,7,8,1,3,2.38749971898505,-1,1.64046483699349
7,1,30,2.85315192743764,7,7,0,3,1.05007856499287,-1,0.595066387992119
7,1,31,2.2508843537415,7,7,0,2,0.677298358001281,-1,0.571539324009791
7,1,32,2.70077097505669,7,7,0,3,1.95827570199617,-1,0.396578066021902
7,1,33,2.94312925170068,7,7,0,3,0.631437424977776,-1,0.153999338013818
7,1,34,3.07954648526077,7,8,1,2,0.744058266980574,-1,0.923631596000632
7,1,35,3.71519274376417,7,9,2,3,1.06124592799461,-1,0.0167277219879907
7,1,36,2.30603174603175,7,7,0,2,0.521570738987066,-1,0.302284278004663
7,1,37,2.9924716553288,7,7,0,3,0.316625137988012,-1,0.0171081429871265
7,1,38,2.82267573696145,7,7,0,2,0.291590725013521,-1,0.0165617290185764
7,1,39,0.445532879818594,7,2,-5,1,3.77106861799257,-1,3.76677505101543
7,1,40,2.53968253968254,7,7,0,3,1.17736183397938,-1,0.339790817990433
7,1,41,3.53233560090703,7,8,1,2,1.4501419699809,-1,0.215744206012459
7,1,42,2.40616780045351,7,6,-1,3,0.27928550998331,-1,1.77442791400244
7,1,43,3.0940589569161,7,8,1,2,0.531567817000905,-1,0.320089729997562
7,1,44,2.80816326530612,7,9,2,2,0.228453649993753,-1,0.751559537020512
7,1,45,2.98231292517007,7,8,1,1,0.215571548993466,-1,0.0744588790112175
7,1,46,1.699410430839,7,5,-2,1,5.84293379599694,-1,3.37184625701047
7,1,47,3.25950113378685,7,8,1,3,0.61748377099866,-1,0.0422041050042026
7,1,48,2.51356009070295,7,7,0,3,0.420331305009313,-1,0.118300436006393
7,1,49,3.22902494331066,7,7,0,1,0.379230424005073,-1,0.119518325984245
7,1,50,2.67319727891156,7,7,0,1,0.420430060010403,-1,0.293846507993294
7,1,51,2.3524716553288,7,6,-1,1,0.30213013102184,-1,0.0175930690020323
7,1,52,2.40761904761905,7,7,0,2,0.253483662992949,-1,0.0175306849996559
7,1,53,3.19709750566893,7,7,0,2,0.27300955800456,-1,0.0173786710074637
7,1,54,2.73705215419501,7,7,0,1,0.147939654008951,-1,0.0334710370225366
7,1,55,4.75428571428571,7,13,6,1,1.44278741499875,-1,0.0167414100142196
7,1,56,2.98521541950113,7,9,2,3,0.19871672600857,-1,0.546792740002275
7,1,57,3.18984126984127,7,8,1,2,0.233681290003005,-1,0.168660386989359
7,1,58,2.68916099773243,7,6,-1,2,0.206137102009961,-1,0.0175108140101656
7,1,59,2.9881179138322,7,8,1,3,0.352958261006279,-1,0.285830550012179
7,1,60,2.28861678004535,7,7,0,2,0.184733189002145,-1,0.0269897830148693
7,1,61,3.08390022675737,7,7,0,3,0.197019073006231,-1,0.0167713210103102
7,1,62,3.4249433106576,7,10,3,2,4.42750965899904,-1,1.03346966800746
7,1,63,0.242358276643991,7,1,-6,1,3.96835124099744,-1,0.841316317004384
7,1,64,2.70367346938776,7,7,0,1,2.14977336997981,-1,0.0949263229849748
7,1,65,2.00562358276644,7,5,-2,1,1.89602721598931,-1,2.56963965302566
7,1,66,2.5730612244898,7,7,0,3,1.18445023300592,-1,0.401799986982951
7,1,67,3.0940589569161,7,8,1,1,0.235380415018881,-1,6.21298204100458
7,1,68,2.65433106575964,7,7,0,1,3.13194128900068,-1,0.0338662590074819
7,1,69,3.13614512471655,7,8,1,3,0.634808119997615,-1,0.402308516990161
7,1,70,2.49324263038549,7,7,0,3,0.849129665992223,-1,0.072722793003777
7,1,71,2.52952380952381,7,6,-1,2,1.16825031299959,-1,0.569112944998778
7,1,72,2.52952380952381,7,8,1,1,0.415469358005794,-1,0.0722509970073588
7,1,73,2.46566893424036,7,7,0,3,0.399641570984386,-1,0.491185829014285
7,1,74,2.4453514739229,7,7,0,3,0.186757746996591,-1,0.31832724402193
7,1,75,2.55854875283447,7,7,0,3,0.235923264990561,-1,0.0174238070030697
7,1,76,2.54984126984127,7,7,0,2,0.163403094979003,-1,0.408143478009151
7,1,77,2.77768707482993,7,8,1,1,0.190474614995765,-1,0.0647220709943213
7,1,78,2.97360544217687,7,7,0,3,0.140291374002118,-1,0.257153192011174
7,1,79,2.49324263038549,7,6,-1,1,0.194421114982106,-1,0.191622556012589
7,1,80,2.78784580498866,7,7,0,2,0.936704710009508,-1,0.147159243992064
7,1,81,3.17387755102041,7,8,1,1,0.221025351987919,-1,0.118780518998392
7,1,82,2.95619047619048,7,8,1,3,0.146733638015576,-1,0.0405817659921013
7,1,83,2.758820861678,7,8,1,2,0.136083066987339,-1,0.0165249419806059
7,1,84,2.54548752834467,7,7,0,2,0.202179502986837,-1,1.11593164299848
7,1,85,2.19718820861678,7,6,-1,2,0.168915369984461,-1,0.0850908760039601
7,1,86,1.92725623582766,7,7,0,2,0.421364728012122,-1,0.598891525994986
7,1,87,2.79800453514739,7,8,1,2,0.534172560001025,-1,0.481957009003963
7,1,88,2.90539682539683,7,9,2,2,0.420341085002292,-1,0.0169213129847776
7,1,89,2.3350566893424,7,7,0,2,0.580617428000551,-1,0.407063535996713
7,1,90,3.75147392290249,7,9,2,1,0.940002629999071,-1,0.0372049730212893
7,1,91,2.88072562358277,7,8,1,3,0.558996279985877,-1,0.121399268013192
7,1,92,2.57015873015873,7,8,1,2,1.11449701400124,-1,0.0165560599998571
7,1,93,2.28136054421769,7,6,-1,2,0.330521037016297,-1,0.0397349799750373
7,1,94,3.83709750566893,7,9,2,2,0.267232455982594,-1,0.0175231460016221
7,1,95,3.06648526077098,7,8,1,2,0.344984117982676,-1,0.01718166100909
7,1,96,2.72399092970522,7,8,1,2,0.34469432401238,-1,0.0175332619983237
7,1,97,3.05342403628118,7,8,1,3,0.40435140999034,-1,1.43784317802056
7,1,98,2.64707482993197,7,7,0,3,0.212829876021715,-1,0.0165692789887544
7,1,99,3.00263038548753,7,7,0,3,0.281158055004198,-1,0.0167875030019786
7,1,100,2.92281179138322,7,7,0,2,0.19573526098975,-1,0.0171099839790259
7,1,101,2.41922902494331,7,6,-1,2,0.315872550010681,-1,0.0642923550039995
7,1,102,2.04625850340136,7,6,-1,2,0.15496434099623,-1,0.0175233159970958
7,1,103,2.26104308390023,7,7,0,2,0.171050152974203,-1,0.0168268150009681
7,1,104,2.3350566893424,7,6,-1,2,0.156769980996614,-1,0.0166160619992297
7,1,105,3.1071201814059,7,8,1,2,0.160464596003294,-1,0.0166146040137392
7,1,106,2.62385487528345,7,6,-1,2,0.136285084998235,-1,0.0226321720110718
7,1,107,2.31764172335601,7,7,0,2,0.150688429013826,-1,0.0172752380021848
7,1,108,2.33795918367347,7,6,-1,2,0.151403663010569,-1,0.0170569040055852
7,1,109,2.76897959183673,7,7,0,2,0.138317068980541,-1,0.0175284229917452
7,1,110,2.6790022675737,7,7,0,2,0.181174470984843,-1,0.0175413030083291
7,1,111,2.63111111111111,7,7,0,2,0.197916123026516,-1,0.0176456530170981
7,1,112,4.04462585034014,7,11,4,2,0.170532307005487,-1,0.0175667720031925
7,1,113,2.96054421768707,7,8,1,2,0.155216893006582,-1,0.0166668829915579
7,1,114,2.83718820861678,7,8,1,2,0.169463952013757,-1,0.0175235990027431
7,1,115,2.95183673469388,7,8,1,2,0.140176107001025,-1,0.0168223379878327
7,1,116,2.94603174603175,7,7,0,2,0.109057536988985,-1,0.0171817730006296
7,2,1,4.10412698412698,11,11,0,2,0.957209070009412,-1,2.92112434000592
7,2,2,4.88489795918367,11,12,1,2,0.365688238991424,-1,0.0174387709994335
7,2,3,3.9372335600907,11,10,-1,2,0.325859708013013,-1,0.0291215960169211
7,2,4,3.80662131519274,11,10,-1,2,0.19396358798258,-1,0.35746750299586
7,2,5,4.17523809523809,11,11,0,2,0.131790018989705,-1,0.0165635930025019
7,2,6,4.41469387755102,11,11,0,2,0.176321481994819,-1,0.157347492990084
7,2,7,3.67746031746032,11,11,0,2,0.114932938013226,-1,0.0165745510021225
7,2,8,4.30585034013605,11,11,0,2,0.132096399000147,-1,8.73638583201682
7,2,9,2.77768707482993,11,9,-2,2,0.16569461900508,-1,0.0166509980044793
7,2,10,4.87328798185941,11,11,0,2,6.53040753299138,-1,0.207071547978558
7,2,11,4.36390022675737,11,11,0,2,0.199978393007768,-1,0.0175553470035084
7,2,12,4.09687074829932,11,11,0,2,0.184434128983412,-1,0.0166529370180797
7,2,13,4.53804988662132,11,11,0,2,0.217274965980323,-1,0.0270214720221702
7,2,14,3.97496598639456,11,10,-1,2,0.226112504984485,-1,0.035570767999161
7,2,15,3.67020408163265,11,10,-1,2,0.214441361982608,-1,0.0166675650107209
7,2,16,4.79637188208617,11,12,1,2,0.152427369001089,-1,0.0276860810117796
7,2,17,4.37986394557823,11,11,0,2,0.175563002005219,-1,0.0174886629974935
7,2,18,2.71238095238095,11,8,-3,2,0.167476830014493,-1,0.0166849140077829
7,2,19,3.44961451247166,11,10,-1,2,0.163490097009344,-1,0.0168811049952637
7,2,20,4.6875283446712,11,11,0,2,0.151780538988532,-1,0.0451489599945489
7,2,21,4.31891156462585,11,11,0,2,0.243027433985844,-1,0.0370052839862183
7,2,22,4.2637641723356,11,10,-1,2,0.244558406004217,-1,0.0175946629897226
7,2,23,4.30149659863946,11,12,1,2,0.170827610010747,-1,0.0165863639849704
7,2,24,3.42639455782313,11,10,-1,2,0.326336951024132,-1,0.436361886007944
7,2,25,4.5772335600907,11,11,0,2,0.282102161989314,-1,0.0411097239993978
7,2,26,5.28689342403628,11,13,2,2,0.243685391993495,-1,0.0281427320151124
7,2,27,5.16063492063492,11,13,2,2,0.246607687993674,-1,0.0869965919991955
7,2,28,4.34358276643991,11,13,2,2,0.155392879998544,-1,0.0170958960079588
7,2,29,4.37986394557823,11,11,0,2,0.15341424397775,-1,0.0170640030119102
7,2,30,4.060589569161,11,10,-1,2,0.228702763008187,-1,0.0315502650046255
7,2,31,3.55265306122449,11,11,0,2,0.197151745000156,-1,0.0481778850080445
7,2,32,4.76444444444444,11,12,1,2,0.155901983001968,-1,0.016688530013198
7,2,33,4.96761904761905,11,12,1,2,0.173609133984428,-1,0.017149788007373
7,2,34,5.05759637188209,11,12,1,2,0.200729989010142,-1,0.0175121370120905
7,2,35,4.10122448979592,11,9,-2,2,0.173505276994547,-1,0.0173894610197749
7,2,36,5.08517006802721,11,13,2,2,0.169616671017138,-1,0.0226185219944455
7,2,37,4.31310657596372,11,11,0,2,0.198594881017925,-1,0.0170728160010185
7,2,38,3.7209977324263,11,9,-2,2,0.132880852004746,-1,0.02609113798826
7,2,39,5.3449433106576,11,13,2,2,0.155543863016646,-1,0.056793696974637
7,2,40,3.87192743764172,11,10,-1,2,0.156903596012853,-1,0.0166289639892057
7,2,41,5.55537414965986,11,14,3,2,0.163173971988726,-1,0.0172021089820191
7,2,42,3.26820861678005,11,9,-2,2,0.131053875025827,-1,0.0168610080145299
7,2,43,5.26077097505669,11,14,3,2,0.166179074003594,-1,0.0324507350160275
7,2,44,5.84997732426304,11,15,4,2,0.0646603159839287,-1,0.0165389299800154
7,2,45,6.00526077097506,11,16,5,2,0.0377124469960108,-1,0.0170672459935304
7,2,46,6.37532879818594,11,16,5,2,0.199968581000576,-1,0.0165743269899394
7,2,47,6.17215419501134,11,16,5,2,0.194333274004748,-1,0.0174289700225927
7,2,48,3.87918367346939,11,10,-1,2,0.111270146997413,-1,0.0172262859996408
7,2,49,3.97931972789116,11,11,0,2,0.203521539981011,-1,0.0173854120075703
7,2,50,4.82829931972789,11,13,2,2,0.204215339996153,-1,0.0225475710176397
7,2,51,4.52063492063492,11,12,1,2,0.16453633600031,-1,0.017497902008472
7,2,52,7.2475283446712,11,19,8,2,0.148044750007102,-1,0.0175893080013338
7,2,53,4.03011337868481,11,10,-1,2,0.145687337004347,-1,0.0171038819826208
7,2,54,4.700589569161,11,11,0,2,0.17617601598613,-1,0.0175398059946019
7,2,55,5.17659863945578,11,13,2,2,0.152337437000824,-1,0.0173684009932913
7,2,56,4.56707482993197,11,10,-1,2,0.149480278982082,-1,0.0169822289899457
7,2,57,4.81233560090703,11,12,1,2,0.231188206991646,-1,0.0169310460041743
7,2,58,4.52934240362812,11,11,0,2,0.238719689979916,-1,0.0171461789868772
7,2,59,4.32761904761905,11,11,0,2,0.431427948991768,-1,0.56063558999449
7,2,60,5.17950113378685,11,14,3,2,0.212934650015086,-1,0.102913304988761
7,2,61,4.1621768707483,11,10,-1,2,0.203568980010459,-1,0.0175090509874281
7,2,62,5.32172335600907,11,15,4,2,0.112590621982235,-1,0.0173026130069047
7,2,63,0.838820861678005,11,2,-9,2,1.34236675797729,-1,0.0166842970065773
7,2,64,3.38866213151927,11,9,-2,2,0.219748409988824,-1,0.0172979460039642
7,2,65,2.94167800453515,11,7,-4,2,0.275677404017188,-1,0.03550738299964
7,2,66,2.94458049886621,11,7,-4,2,0.140068976994371,-1,0.0174341780075338
7,2,67,2.42068027210884,11,6,-5,2,0.182447635015706,-1,0.0166603200195823
7,2,68,3.22176870748299,11,8,-3,1,0.0663168769970071,-1,0.0171136139833834
7,2,69,1.82566893424036,11,5,-6,3,0.0773114390030969,-1,0.34354456802248
7,2,70,3.00698412698413,11,8,-3,2,0.0614881350193173,-1,0.855869883991545
7,2,71,3.37995464852608,11,9,-2,1,0.0772296490031295,-1,0.870862208015751
7,2,72,3.55555555555556,11,9,-2,3,0.135024119983427,-1,0.0175762300204951
7,2,73,3.82548752834467,11,10,-1,3,0.15664198200102,-1,0.0167485749989282
7,2,74,4.58739229024943,11,12,1,3,0.0786770110134967,-1,0.0167415580071975
7,2,75,3.89369614512472,11,9,-2,2,0.0500157810165547,-1,3.4208380659984
7,2,76,2.9881179138322,11,9,-2,2,0.0955631569959223,-1,0.0170814399898518
7,2,77,3.87773242630385,11,11,0,2,0.406792469002539,-1,0.0173806990205776
7,2,78,3.77759637188209,11,9,-2,2,0.0602743960043881,-1,0.0168074299872387
7,2,79,3.56136054421769,11,9,-2,2,0.0865554790070746,-1,2.05410086299526
7,2,80,2.48163265306122,11,8,-3,2,0.598782699002186,-1,0.0173368399846368
7,2,81,3.75582766439909,11,10,-1,2,0.0686735199997202,-1,3.87758624600247
7,2,82,6.69315192743764,11,16,5,2,0.666190725984052,-1,0.016928885015659
7,2,83,3.89950113378685,11,10,-1,2,0.0773916830075905,-1,0.0167765310034156
7,2,84,3.92126984126984,11,9,-2,2,0.0720678729994688,-1,0.0169707649911288
7,2,85,4.41034013605442,11,12,1,2,0.0687518790073227,-1,0.0169790880172513
7,2,86,5.45378684807256,11,13,2,3,0.40748174500186,-1,0.883609367010649
7,2,87,2.49759637188209,11,6,-5,2,0.0670255189761519,-1,0.668283530976623
7,2,88,2.96344671201814,11,7,-4,2,0.433270945999539,-1,0.0165672370058019
7,2,89,2.37859410430839,11,7,-4,2,0.0989603510242887,-1,0.0167190770152956
7,2,90,2.63546485260771,11,8,-3,2,0.153181066998513,-1,0.0168221689818893
7,2,91,2.69061224489796,11,7,-4,2,0.126621955976589,-1,0.0167881699744612
7,2,92,2.09850340136054,11,6,-5,2,0.135097937978571,-1,0.0175376400002278
7,2,93,2.43374149659864,11,7,-4,2,0.238930288993288,-1,0.0172307970060501
7,2,94,3.36253968253968,11,9,-2,2,0.108073020994198,-1,0.0166225889988709
7,2,95,3.59619047619048,11,10,-1,2,0.0890504560084082,-1,0.0174997329886537
7,2,96,3.56426303854875,11,9,-2,2,0.10958537197439,-1,0.0167182330042124
7,2,97,2.18702947845805,11,6,-5,2,0.134997001994634,-1,0.0168749600125011
7,2,98,2.95183673469388,11,7,-4,2,0.777639845007798,-1,0.016622366005322
7,2,99,3.78195011337868,11,10,-1,2,0.189659430005122,-1,0.0168056949914899
7,2,100,0.235102040816327,11,1,-10,2,0.114075574994786,-1,0.0165414710063487
7,2,101,0.249614512471655,11,1,-10,2,0.0769567649986129,-1,0.0175269669853151
7,2,102,0.261224489795918,11,1,-10,1,0.105785617983202,-1,0.0169610330194701
7,2,103,0.243809523809524,11,1,-10,1,0.120223925012397,-1,0.0165857019892428
7,2,104,0.236553287981859,11,1,-10,1,0.111493715026882,-1,0.017462110001361
7,2,105,4.32761904761905,11,11,0,2,0.175766066997312,-1,0.0169161569792777
7,2,106,2.91555555555556,11,7,-4,2,0.181977811997058,-1,0.0166456480219495
7,2,107,2.64997732426304,11,7,-4,2,0.152826164994622,-1,0.0167372419964522
7,2,108,2.94167800453515,11,8,-3,2,0.189897398988251,-1,0.0176563530112617
7,2,109,3.08680272108844,11,8,-3,2,0.0853562760166824,-1,0.0175530010019429
7,2,110,3.54249433106576,11,9,-2,2,0.125409058004152,-1,0.0167394400050398
7,2,111,3.14340136054422,11,9,-2,2,0.161051262024557,-1,0.0168969919905066
7,2,112,4.48145124716553,11,12,1,2,0.201942143001361,-1,2.67566203398746
8,1,1,4.10848072562358,11,10,-1,3,3.41741749597713,-1,1.78283493197523
8,1,2,4.28408163265306,11,10,-1,2,3.07955271803075,-1,2.00539124303032
8,1,3,4.43501133786848,11,11,0,3,4.07869445998222,-1,0.691202289017383
8,1,4,4.49015873015873,11,12,1,3,1.67478831601329,-1,1.75806998397456
8,1,5,4.37115646258503,11,11,0,2,1.56615155900363,-1,2.74959981197026
8,1,6,4.22893424036281,11,10,-1,2,8.08461990801152,-1,2.62195370899281
8,1,7,4.34938775510204,11,11,0,3,6.42618235503323,-1,1.57823211204959
8,1,8,5.03873015873016,11,12,1,2,1.67995234503178,-1,1.68399028800195
8,1,9,5.32172335600907,11,13,2,2,8.80956747400342,-1,1.93204872502247
8,1,10,4.56417233560091,11,12,1,3,3.08071417396422,-1,0.960626972024329
8,1,11,4.26956916099773,11,11,0,2,1.67896404903149,-1,1.4572612909833
8,1,12,3.53959183673469,11,9,-2,1,6.39934212598018,-1,0.943888172972947
8,1,13,4.87183673469388,11,12,1,2,2.20645875198534,-1,0.644462790980469
8,1,14,4.67156462585034,11,13,2,2,6.27741420903476,-1,1.98185750702396
8,1,15,4.31310657596372,11,11,0,3,2.74677248299122,-1,1.32091621303698
8,1,16,5.05904761904762,11,11,0,3,2.62118544604164,-1,0.328506178979296
8,1,17,5.18675736961451,11,13,2,2,1.46191534103127,-1,0.90769178699702
8,1,18,3.7471201814059,11,11,0,2,2.17629022197798,-1,1.95137888699537
8,1,19,4.04462585034014,11,11,0,2,3.06186130596325,-1,0.535031559993513
8,1,20,4.07219954648526,11,10,-1,3,1.40545185998781,-1,0.676550544972997
8,1,21,4.52934240362812,11,12,1,2,1.48738362803124,-1,0.385499479016289
8,1,22,4.86603174603175,11,12,1,3,1.67408926499775,-1,0.110835702973418
8,1,23,4.53079365079365,11,12,1,3,2.36184096400393,-1,0.86442617001012
8,1,24,4.95455782312925,11,13,2,3,2.73036156996386,-1,1.84010173700517
8,1,25,6.04444444444444,11,15,4,2,2.92424383899197,-1,1.28944457601756
8,1,26,4.87619047619048,11,13,2,2,1.35472575895255,-1,1.11661193199689
8,1,27,4.44371882086168,11,11,0,2,4.73848403204465,-1,2.80455702199833
8,1,28,6.73959183673469,11,16,5,2,3.44995120499516,-1,1.18847255397122
8,1,29,4.32616780045351,11,12,1,1,5.77420108800288,-1,0.681631379004102
8,1,30,4.89650793650794,11,12,1,2,1.61171289999038,-1,0.505487796035595
8,1,31,4.65124716553288,11,11,0,2,6.13555034599267,-1,4.50120255700313
8,1,32,5.35510204081633,11,14,3,2,1.28284013399389,-1,0.0168291629524902
8,1,33,4.8108843537415,11,12,1,2,1.8562055809889,-1,1.36449050501687
8,1,34,4.82249433106576,11,13,2,1,2.87713422102388,-1,0.870084887021221
8,1,35,5.06920634920635,11,13,2,2,1.60939824901288,-1,0.510735701012891
8,1,36,4.43791383219955,11,11,0,2,3.07399010198424,-1,0.833507583010942
8,1,37,5.57133786848073,11,12,1,3,3.47529157798272,-1,0.578251136001199
8,1,38,4.92698412698413,11,11,0,2,3.22837629902642,-1,1.39694883400807
8,1,39,4.71945578231293,11,11,0,2,1.56474888999946,-1,4.42885159695288
8,1,40,4.76879818594104,11,13,2,2,4.65267010498792,-1,1.07301124604419
8,1,41,5.54666666666667,11,13,2,2,2.65866061398992,-1,0.741946920985356
8,1,42,5.56553287981859,11,15,4,1,1.98079888598295,-1,1.27397060400108
8,1,43,4.95020408163265,11,12,1,2,1.94323193602031,-1,5.18852557701757
8,1,44,4.2637641723356,11,12,1,3,1.38231182203162,-1,2.61482959397836
8,1,45,4.85587301587302,11,13,2,2,6.81702212599339,-1,3.96144010400167
8,1,46,4.00544217687075,11,11,0,2,3.38327815599041,-1,0.927933126979042
8,1,47,4.61786848072562,11,13,2,3,1.82075613603229,-1,0.451458514027763
8,1,48,3.65133786848073,11,9,-2,2,1.72214574605459,-1,4.42023460700875
8,1,49,4.88634920634921,11,12,1,2,2.6568094920367,-1,3.01820495200809
8,1,50,4.75283446712018,11,12,1,3,1.78101587999845,-1,0.38869644398801
8,1,51,5.06485260770975,11,13,2,3,2.60232775099576,-1,0.926010924973525
8,1,52,5.18675736961451,11,13,2,3,1.977096585033,-1,0.326824963965919
8,1,53,4.10702947845805,11,10,-1,2,4.06266120600048,-1,0.899452415003907
8,1,54,5.2172335600907,11,12,1,2,1.73015743400902,-1,0.87514551798813
8,1,55,4.50321995464853,11,11,0,2,1.03458300302736,-1,0.384719083027449
8,1,56,4.51337868480726,11,12,1,2,0.973595961986575,-1,0.58411618397804
8,1,57,4.81668934240363,11,11,0,3,0.987855444021989,-1,0.677143918990623
8,1,58,5.02857142857143,11,12,1,3,1.71688571700361,-1,0.0173823980148882
8,1,59,4.60190476190476,11,11,0,2,2.7250426110113,-1,1.01008854998508
8,1,60,5.12,11,14,3,2,1.39933989295969,-1,0.0399511989671737
8,1,61,5.07646258503401,11,12,1,2,2.38964030798525,-1,0.489804418000858
8,1,62,4.57868480725624,11,12,1,3,1.15441100904718,-1,0.68424839200452
8,1,63,4.2681179138322,11,10,-1,3,2.10058228101116,-1,0.0385679179453291
8,1,64,4.52498866213152,11,11,0,3,1.46470079297433,-1,0.430068653018679
8,1,65,4.27972789115646,11,11,0,2,0.764401905995328,-1,2.14492088800762
8,1,66,4.63673469387755,11,12,1,2,1.58301710302476,-1,2.23812626296422
