Subj_idx,Block,Trial,RT_stop,Stimulus,Response,Error,Confidence,RT_confidence,ErrorDirectionJudgment,RT_directionJudgment
1,3,1,1.52526077097506,7,4,-3,1,1.33625565200055,-1,0.354647168998781
1,3,2,2.0346485260771,7,5,-2,2,2.4284221300004,-1,2.43287285800034
1,3,3,2.1231746031746,7,6,-1,2,1.81568480699934,-1,0.709975080000731
1,3,4,2.3437641723356,7,7,0,1,1.60014327299905,-1,0.319711285001176
1,3,5,2.10140589569161,7,5,-2,3,1.27864731799855,-1,0.762291082000957
1,3,6,1.85034013605442,7,5,-2,3,2.01605406400085,-1,1.21354681400044
1,3,7,1.6065306122449,7,6,-1,1,2.21616014100073,-1,0.308283086998927
1,3,8,2.30748299319728,7,6,-1,1,1.21607936799955,-1,0.274096580998958
1,3,9,1.73569160997732,7,4,-3,1,2.04581967299964,-1,0.234021410000423
1,3,10,1.84163265306122,7,5,-2,2,3.56188506999933,-1,0.861010368000279
1,3,11,1.73859410430839,7,5,-2,3,2.06161434100068,-1,1.00857423100024
1,3,12,2.56145124716553,7,7,0,1,1.05218923400025,-1,0.217105041998366
1,3,13,2.16816326530612,7,6,-1,1,1.57395531099974,-1,0.269400203998885
1,3,14,2.9750566893424,7,7,0,2,2.9995830379994,-1,1.11442197900033
1,3,15,2.49034013605442,7,7,0,2,1.15458522699919,-1,0.22908089900011
1,3,16,3.59183673469388,7,9,2,1,0.986377831000937,-1,0.202902900999106
1,3,17,2.40181405895692,7,6,-1,2,1.20158388900018,-1,0.753177687998686
1,3,18,2.19718820861678,7,6,-1,3,1.57514272600019,-1,1.39956517100109
1,3,19,1.78068027210884,7,5,-2,2,1.95579782899949,-1,0.466581189000863
1,3,20,1.84163265306122,7,5,-2,2,2.21517969200067,-1,0.66857907099984
1,3,21,2.16090702947846,7,6,-1,2,1.95180009400065,-1,0.358916821000093
1,3,22,2.36843537414966,7,6,-1,2,2.09677875200032,-1,0.219583910999063
1,3,23,2.29006802721088,7,5,-2,3,1.26218678800069,-1,2.61153365399878
1,3,24,1.86195011337868,7,6,-1,1,1.82743149000089,-1,0.112909272998877
1,3,25,2.49759637188209,7,6,-1,2,2.59724669400021,-1,0.296877062000931
1,3,26,1.90984126984127,7,6,-1,1,0.975920038999902,-1,0.106870202000209
1,3,27,2.37714285714286,7,6,-1,2,1.70922578600039,-1,2.10249878200011
1,3,28,2.16380952380952,7,6,-1,1,2.09184110200113,-1,0.0536107719999563
1,3,29,2.47437641723356,7,6,-1,1,2.73944124000082,-1,1.00942113200108
1,3,30,2.73705215419501,7,8,1,1,3.13340958799927,-1,0.675685416999841
1,3,31,1.77922902494331,7,6,-1,2,1.40682124100022,-1,1.01503215499906
1,3,32,2.05641723356009,7,5,-2,3,1.52667381100036,-1,0.321112233999884
1,3,33,2.21895691609977,7,7,0,2,1.5127045270001,-1,0.851755998999579
1,3,34,2.52662131519274,7,7,0,1,2.47974332900048,-1,1.2262010150007
1,3,35,3.37995464852608,7,9,2,1,3.46380702200076,-1,0.727485023000554
1,3,36,1.93596371882086,7,5,-2,1,1.98591348099944,-1,0.255922583999563
1,3,37,2.84734693877551,7,7,0,2,3.65807555699939,-1,0.512792403000276
1,3,38,2.57015873015873,7,7,0,2,5.59827712100014,-1,0.649297247999129
1,3,39,2.49614512471655,7,7,0,1,1.44500200900075,-1,0.899335603000509
1,3,40,2.40181405895692,7,7,0,1,0.942524161999245,-1,0.207844094000393
1,3,41,2.08544217687075,7,5,-2,3,1.1834492880007,-1,0.623694636000437
1,3,42,2.07818594104308,7,6,-1,3,1.34740576999866,-1,0.46108616499987
1,3,43,2.17396825396825,7,6,-1,2,4.89179130100092,-1,1.07674024900007
1,3,44,2.47147392290249,7,6,-1,1,3.66436743899976,-1,0.598553933999938
1,3,45,2.3350566893424,7,6,-1,2,2.03419773899986,-1,0.559705040001063
1,3,46,2.0302947845805,7,6,-1,3,1.14931197100123,-1,1.32897604199934
1,3,47,2.09124716553288,7,6,-1,3,1.74483034599871,-1,2.14577159600049
1,3,48,3.18113378684807,7,8,1,3,1.87024258200108,-1,1.32134865300031
1,3,49,2.52517006802721,7,6,-1,3,1.46297844199944,-1,1.85969509300048
1,3,50,2.48453514739229,7,6,-1,2,3.96133392199954,-1,1.16447098699973
1,3,51,2.2291156462585,7,7,0,1,1.42063233299996,-1,0.346175493999908
1,3,52,2.0259410430839,7,6,-1,1,1.2418723719984,-1,0.263470824000251
1,3,53,2.02013605442177,7,5,-2,2,1.72406992799915,-1,0.238462057999641
1,3,54,2.09124716553288,7,6,-1,2,4.45820954800001,-1,0.327948559999641
1,3,55,2.79945578231293,7,7,0,1,0.768463145999704,-1,0.227663648000089
1,3,56,2.09560090702948,7,5,-2,3,1.64039335499911,-1,0.334155236001607
1,3,57,1.81696145124717,7,5,-2,1,1.99091887800023,-1,0.325320873998862
1,3,58,2.07528344671202,7,6,-1,3,1.26698999900145,-1,0.599124984000809
1,3,59,1.93015873015873,7,5,-2,2,1.4037268739994,-1,0.852875718001087
1,3,60,2.08399092970522,7,6,-1,1,0.811167692001618,-1,0.259818417998758
1,3,61,2.32344671201814,7,6,-1,3,1.16990187200099,-1,0.851057634999961
1,3,62,1.88662131519274,7,5,-2,2,4.87670527199953,-1,0.901742497999294
1,3,63,2.39891156462585,7,6,-1,1,3.8261041730002,-1,1.19332734000091
1,3,64,2.23492063492063,7,6,-1,2,1.53825942399999,-1,0.907670738000888
1,3,65,3.11002267573696,7,8,1,3,3.97946121399946,-1,0.82010611700025
1,3,66,2.59773242630386,7,7,0,3,1.75218267699893,-1,0.512756113999785
1,3,67,2.41922902494331,7,7,0,2,1.71654455499993,-1,0.424306880000586
1,3,68,2.42503401360544,7,6,-1,3,2.7007292369999,-1,1.98198128900003
1,3,69,2.04625850340136,7,6,-1,2,2.62442283200107,-1,0.500225054000111
1,3,70,2.55854875283447,7,6,-1,1,4.60147461999986,-1,1.99350862100073
1,3,71,2.29587301587302,7,6,-1,3,1.16700753700025,-1,1.35275741700025
1,3,72,2.30893424036281,7,7,0,2,2.62532097300027,-1,0.195614371999909
1,3,73,1.97514739229025,7,5,-2,3,1.46893219000049,-1,1.6574880320004
1,3,74,2.57596371882086,7,7,0,2,1.82790368300084,-1,0.184883075000471
1,3,75,2.88943310657596,7,7,0,1,1.03711879200091,-1,0.333114678000129
1,3,76,2.10430839002268,7,5,-2,2,1.74178496600143,-1,0.222745283999757
1,3,77,2.44825396825397,7,6,-1,3,1.66843730999972,-1,0.601040330000615
1,3,78,2.68916099773243,7,7,0,3,1.58085738000045,-1,0.948133756999596
1,3,79,2.90829931972789,7,7,0,1,1.15521689100024,-1,0.556081905999235
1,3,80,1.94467120181406,7,6,-1,3,1.40693150799962,-1,1.71783712200158
1,3,81,2.91990929705215,7,8,1,1,6.41085906199987,-1,1.01041478499974
1,3,82,2.71383219954649,7,7,0,1,2.51975920900077,-1,0.903787674998966
1,3,83,2.76172335600907,7,7,0,1,4.66884902899983,-1,0.952967719000299
1,3,84,3.06793650793651,7,7,0,1,2.70648385700042,-1,1.49011898499884
1,3,85,2.36988662131519,7,7,0,2,2.59663435900075,-1,0.759825573999478
1,3,86,2.75736961451247,7,8,1,1,1.59021549600038,-1,0.221551812999678
1,3,87,2.8821768707483,7,7,0,1,0.731443635000687,-1,0.208310606998566
1,3,88,2.2421768707483,7,6,-1,3,1.0755007079988,-1,0.872301286999573
1,3,89,2.85315192743764,7,7,0,3,0.906274879998819,-1,0.328630267000335
1,3,90,2.14929705215419,7,6,-1,1,1.00797171100021,-1,0.224389560999043
1,3,91,2.40036281179138,7,6,-1,1,1.61856496400105,-1,0.234065684999223
1,3,92,2.24798185941043,7,6,-1,1,2.89076434200069,-1,0.281666098000642
1,3,93,2.0215873015873,7,5,-2,1,1.28770026499842,-1,0.122674631000336
1,3,94,2.70367346938776,7,6,-1,2,1.09983670700058,-1,0.529563960000814
1,3,95,2.79074829931973,7,7,0,2,2.43534427800114,-1,0.686347658998784
1,3,96,2.41197278911565,7,6,-1,3,1.79581202900044,-1,1.28824278599859
1,3,97,2.11156462585034,7,6,-1,3,1.95927387899974,-1,0.759434644000066
1,3,98,2.39455782312925,7,6,-1,3,1.30860545700125,-1,1.03149329799999
1,3,99,2.07963718820862,7,6,-1,2,3.48381266400065,-1,0.874278043998856
1,3,100,3.09696145124717,7,8,1,1,1.22994423800083,-1,0.347571213000265
1,4,1,3.02004535147392,11,8,-3,1,6.43916890999935,-1,0.871153774000049
1,4,2,3.43655328798186,11,9,-2,2,1.14703541899871,-1,1.28381744099897
1,4,3,4.46839002267574,11,12,1,1,4.42092194299948,-1,0.89928265799972
1,4,4,3.99818594104308,11,10,-1,2,2.00325812200026,-1,0.825897998000073
1,4,5,4.39147392290249,11,10,-1,1,1.07599868699981,-1,0.273621934000403
1,4,6,2.81541950113379,11,7,-4,1,1.27354333199946,-1,0.296038055999816
1,4,7,2.80380952380952,11,8,-3,1,2.02765716800059,-1,0.230879831999118
1,4,8,3.17678004535147,11,9,-2,2,4.63061696899968,-1,0.715843265999865
1,4,9,3.7340589569161,11,10,-1,3,1.24141746299938,-1,0.943515744000251
1,4,10,2.57596371882086,11,6,-5,1,1.59947894300058,-1,0.0531059390013979
1,4,11,4.44226757369614,11,11,0,2,1.56117488500058,-1,0.378038455999558
1,4,12,3.81678004535147,11,9,-2,3,1.59638828599964,-1,0.283458604000771
1,4,13,3.36399092970522,11,9,-2,2,1.29560280499936,-1,0.579376677000255
1,4,14,2.94893424036281,11,8,-3,1,0.901791401000082,-1,0.218328119999569
1,4,15,4.21732426303855,11,11,0,1,9.30682309799886,-1,0.465849247000733
1,4,16,3.001179138322,11,8,-3,3,1.09223562700026,-1,1.43317591599953
1,4,17,2.93587301587302,11,8,-3,3,1.96323905399913,-1,1.18738208600007
1,4,18,3.65278911564626,11,10,-1,3,1.40919590299927,-1,0.265806467999937
1,4,19,3.37269841269841,11,9,-2,1,1.8934649010007,-1,0.351329036000607
1,4,20,3.64843537414966,11,8,-3,2,1.96991719299876,-1,0.0575342789998103
1,4,21,3.86176870748299,11,10,-1,2,1.22036490800019,-1,2.21148032200108
1,4,22,4.41324263038549,11,10,-1,2,2.81066992900014,-1,0.469615497000632
1,4,23,3.88208616780045,11,10,-1,1,1.5284112219997,-1,0.436333403999015
1,4,24,3.43219954648526,11,10,-1,1,1.27893785099877,-1,0.275638720999268
1,4,25,2.64562358276644,11,8,-3,1,2.77923149999879,-1,0.344472270000551
1,4,26,4.49451247165533,11,11,0,1,1.80360926300091,-1,0.177819113998339
1,4,27,3.40462585034014,11,9,-2,1,1.77924107500075,-1,0.301477766000971
1,4,28,4.37696145124717,11,11,0,1,0.821510265999677,-1,0.110518307999882
1,4,29,3.65278911564626,11,9,-2,1,6.42373996400056,-1,0.904739019000772
1,4,30,4.33052154195011,11,10,-1,2,2.38266318299975,-1,0.301564477000284
1,4,31,3.60634920634921,11,9,-2,1,1.40990998799862,-1,0.256901361000928
1,4,32,3.96045351473923,11,11,0,3,1.52171992699914,-1,2.93164392799918
1,4,33,3.67746031746032,11,10,-1,3,1.54262980900057,-1,0.793187023000428
1,4,34,3.84580498866213,11,10,-1,2,1.68497776999902,-1,0.399129473000357
1,4,35,3.12598639455782,11,8,-3,2,1.53647129300043,-1,0.273983989000044
1,4,36,3.72825396825397,11,11,0,2,2.23338463499931,-1,0.413575073000175
1,4,37,3.57442176870748,11,10,-1,1,2.2310794060013,-1,0.45158095700026
1,4,38,4.35664399092971,11,10,-1,3,1.37441431499974,-1,1.06448572099907
1,4,39,4.21732426303855,11,10,-1,2,1.64368151500094,-1,0.801932030999524
1,4,40,4.02866213151927,11,10,-1,1,2.26239482100027,-1,0.121055710998917
1,4,41,4.12299319727891,11,9,-2,2,1.41759723799987,-1,0.504246473999956
1,4,42,3.10421768707483,11,9,-2,1,1.12860062799882,-1,0.211810060000062
1,4,43,2.23927437641723,11,7,-4,1,1.37369179800044,-1,0.221753108000485
1,4,44,4.10557823129252,11,9,-2,2,1.40303375699841,-1,0.706717138000386
1,4,45,3.49170068027211,11,9,-2,2,1.51936717700119,-1,0.304836716000864
1,4,46,3.70938775510204,11,9,-2,3,1.86784282200097,-1,0.797780721999516
1,4,47,4.19410430839002,11,10,-1,2,1.52145787699919,-1,0.346880533999865
1,4,48,3.35963718820862,11,9,-2,1,1.39352548500028,-1,1.37850927699947
1,4,49,3.68036281179138,11,10,-1,2,1.90652348499862,-1,0.789591879
1,4,50,5.90077097505669,11,16,5,1,1.25390470000093,-1,0.404123121999874
1,4,51,3.76598639455782,11,9,-2,1,1.43939876999866,-1,0.467736217000493
1,4,52,3.30739229024943,11,8,-3,2,1.05352219500128,-1,0.62917417800054
1,4,53,3.00698412698413,11,9,-2,1,3.08819505999963,-1,0.319507021000391
1,4,54,3.32335600907029,11,9,-2,2,0.957382524000423,-1,0.51949210499879
1,4,55,3.52798185941043,11,9,-2,1,1.2488275630003,-1,0.254802419000043
1,4,56,3.55555555555556,11,9,-2,2,2.0913997330008,-1,0.268586939999295
1,4,57,3.71809523809524,11,10,-1,2,1.77502183899924,-1,0.391397683999458
1,4,58,4.18249433106576,11,12,1,3,0.959011298000405,-1,1.24939296600132
1,4,59,4.44807256235828,11,11,0,1,0.805022260001351,-1,0.557120262001263
1,4,60,3.58893424036281,11,8,-3,2,1.4211544030004,-1,0.588517185000455
1,4,61,5.2302947845805,11,12,1,1,1.11434968300091,-1,0.294800009000028
1,4,62,3.73696145124717,11,9,-2,1,1.25256445300147,-1,0.249444057000801
1,4,63,3.56136054421769,11,9,-2,1,3.21035895299974,-1,0.277099032000478
1,4,64,3.81097505668934,11,10,-1,1,1.60818890399969,-1,0.204883026999596
1,4,65,3.54829931972789,11,10,-1,1,2.24486113300009,-1,0.377432163999401
1,4,66,4.04027210884354,11,9,-2,2,1.17939639100041,-1,0.746231495000757
1,4,67,4.32471655328798,11,11,0,1,1.31014803700054,-1,0.335620043000745
1,4,68,3.31609977324263,11,9,-2,2,2.92263684000136,-1,0.360735513000691
1,4,69,4.12154195011338,11,10,-1,2,1.49076448699998,-1,0.341442799001015
1,4,70,3.45396825396825,11,9,-2,1,1.31717699100045,-1,0.687136090000422
1,4,71,5.10258503401361,11,12,1,2,1.99107978000029,-1,0.527078639001047
1,4,72,6.30421768707483,11,16,5,1,2.10582662900015,-1,0.653198236001117
1,4,73,4.63528344671202,11,12,1,1,2.99268641500021,-1,3.24345475600057
1,4,74,4.58303854875283,11,10,-1,2,4.12814907199936,-1,0.665969679001137
1,4,75,4.28698412698413,11,12,1,1,1.88243628200144,-1,0.812487511999279
1,4,76,4.1665306122449,11,12,1,1,3.85806142199908,-1,0.775293508000686
1,4,77,4.45532879818594,11,11,0,3,1.26717388399993,-1,1.84659150500011
1,4,78,4.71655328798186,11,11,0,3,1.061830052,-1,2.45186669699979
1,4,79,4.82539682539683,11,12,1,1,2.35280923500068,-1,0.40736070300045
1,4,80,4.03011337868481,11,11,0,2,1.7084750110007,-1,0.614879184000529
1,4,81,4.26666666666667,11,11,0,2,1.34828996599936,-1,0.301446259998556
1,4,82,3.70068027210884,11,10,-1,1,1.43886813599966,-1,0.300634952998735
1,4,83,4.32036281179138,11,10,-1,3,1.13455744500061,-1,1.48805649099995
1,4,84,3.65859410430839,11,9,-2,2,1.23644267599957,-1,0.338462112000343
1,4,85,4.19845804988662,11,11,0,1,2.79047849100061,-1,0.667303588999857
1,4,86,4.74122448979592,11,13,2,1,1.79066840299856,-1,0.308376585000588
2,3,1,4.37696145124717,11,11,0,2,1.33926201052964,-1,4.19108260795474
2,3,2,4.39292517006803,11,11,0,3,0.406124765053391,-1,0.327418953180313
2,3,3,4.61496598639456,11,12,1,2,1.02472401969135,-1,0.0438584163784981
2,3,4,4.30439909297052,11,11,0,2,0.579210503026843,-1,0.256147442385554
2,3,5,4.40888888888889,11,11,0,3,0.898883225396276,-1,1.15262342989445
2,3,6,4.98503401360544,11,12,1,2,0.358762629330158,-1,0.0596284233033657
2,3,7,2.58467120181406,11,7,-4,2,0.516790244728327,-1,0.0752722751349211
2,3,8,4.55691609977324,11,11,0,2,0.802400756627321,-1,0.22950897552073
2,3,9,4.3740589569161,11,11,0,3,0.780759327113628,-1,0.408861109986901
2,3,10,4.42049886621315,11,11,0,3,1.35339610278606,-1,0.828631846234202
2,3,11,4.28553287981859,11,11,0,3,0.931338487192988,-1,0.35925735719502
2,3,12,3.84145124716553,11,11,0,3,2.6697268076241,-1,0.642233889549971
2,3,13,4.03446712018141,11,11,0,2,1.53076134249568,-1,1.48076227679849
2,3,14,4.80072562358277,11,11,0,3,2.44565769471228,-1,0.62032650783658
2,3,15,4.09687074829932,11,11,0,3,2.98557952232659,-1,0.442955933511257
2,3,16,4.3784126984127,11,12,1,2,1.98391637206078,-1,0.169396486133337
2,3,17,4.73251700680272,11,11,0,3,1.80159414373338,-1,0.0344420820474625
2,3,18,3.96190476190476,11,9,-2,1,3.19519782438874,-1,0.106353797018528
2,3,19,4.23328798185941,11,11,0,3,2.44400940649211,-1,0.555107444524765
2,3,20,4.24489795918367,11,11,0,3,0.270491322502494,-1,0.0875241309404373
2,3,21,4.3697052154195,11,11,0,3,0.290479443967342,-1,0.147400811314583
2,3,22,4.46403628117914,11,11,0,3,0.763993803411722,-1,0.577710842713714
2,3,23,5.13451247165533,11,13,2,2,1.65054663643241,-1,0.642256619408727
2,3,24,4.09396825396825,11,11,0,3,0.402667492628098,-1,0.285568471997976
2,3,25,4.63963718820862,11,11,0,2,1.60345421917737,-1,0.564892752096057
2,3,26,4.44226757369614,11,11,0,3,0.959474064409733,-1,0.316686805337667
2,3,27,4.27827664399093,11,11,0,3,0.571188261732459,-1,1.3689052183181
2,3,28,4.4669387755102,11,11,0,3,0.434641586616635,-1,0.212786274030805
2,3,29,4.42775510204082,11,10,-1,2,1.22347377985716,-1,0.287984503433108
2,3,30,4.61206349206349,11,12,1,2,0.916100692003965,-1,0.32884681597352
2,3,31,4.23328798185941,11,11,0,3,0.330288155004382,-1,0.280337357893586
2,3,32,4.09541950113379,11,12,1,2,0.977425664663315,-1,0.332716962322593
2,3,33,4.15201814058957,11,10,-1,2,4.33029871061444,-1,0.779703408479691
2,3,34,4.72380952380952,11,11,0,2,1.87136621586978,-1,0.0170119926333427
2,3,35,4.00544217687075,11,10,-1,2,1.57137957029045,-1,0.0158989280462265
2,3,36,2.28281179138322,11,6,-5,1,3.69629981927574,-1,2.99437251314521
2,3,37,4.24489795918367,11,11,0,3,0.487544508650899,-1,0.0167969297617674
2,3,38,4.60045351473923,11,11,0,3,0.581020100042224,-1,0.0568561404943466
2,3,39,4.3609977324263,11,11,0,3,3.45969313010573,-1,0.0169187765568495
2,3,40,4.14621315192744,11,11,0,3,2.57971713878214,-1,0.171378964558244
2,3,41,4.1621768707483,11,11,0,2,1.09477338194847,-1,0.750906700268388
2,3,42,4.29859410430839,11,11,0,3,0.288588462397456,-1,0.0714162569493055
2,3,43,4.62657596371882,11,11,0,2,0.76287242397666,-1,0.270853690803051
2,3,44,4.54675736961451,11,12,1,1,1.37394620105624,-1,0.44294317625463
2,3,45,4.78040816326531,11,11,0,3,0.419959910213947,-1,0.0628989916294813
2,3,46,4.19410430839002,11,10,-1,2,1.04525790736079,-1,0.453835176303983
2,3,47,4.48580498866213,11,11,0,3,0.364296711981297,-1,0.207330670207739
2,3,48,3.89950113378685,11,10,-1,3,0.46209947578609,-1,0.206969490274787
2,3,49,3.88208616780045,11,11,0,2,0.34881498478353,-1,0.251015244051814
2,3,50,5.1287074829932,11,13,2,1,0.369397360831499,-1,0.166918171569705
2,3,51,3.97351473922902,11,10,-1,2,1.24798714742064,-1,0.080600194633007
2,3,52,3.78485260770975,11,10,-1,2,0.470160936936736,-1,0.0159305296838284
2,3,53,3.90965986394558,11,10,-1,2,0.297806087881327,-1,0.0343398358672857
2,3,54,4.16943310657596,11,11,0,2,0.325675971806049,-1,0.122046196833253
2,3,55,4.20571428571429,11,10,-1,3,0.22766643203795,-1,0.0791765414178371
2,3,56,4.21587301587302,11,11,0,3,0.29043853096664,-1,0.425875836983323
2,3,57,4.18249433106576,11,11,0,3,0.419520748779178,-1,0.461459048092365
2,3,58,4.23619047619048,11,11,0,3,0.427751544862986,-1,0.327107874676585
2,3,59,0.226394557823129,11,1,-10,1,4.03344611264765,-1,0.254914360120893
2,3,60,4.73396825396825,11,12,1,2,2.12960246391594,-1,0.66244975477457
2,3,61,4.19555555555556,11,11,0,3,0.97591226361692,-1,0.0163216702640057
2,3,62,4.35083900226757,11,12,1,2,0.748855996876955,-1,0.409015072509646
2,3,63,4.50176870748299,11,12,1,1,1.308604195714,-1,0.466765444725752
2,3,64,4.81814058956916,11,13,2,2,0.461427921429276,-1,0.0159423220902681
2,3,65,5.07356009070295,11,11,0,3,0.864202871918678,-1,0.110911166295409
2,3,66,4.49451247165533,11,11,0,3,0.366984399035573,-1,0.154531016945839
2,3,67,4.44081632653061,11,11,0,3,0.504548138007522,-1,0.526953898370266
2,3,68,4.73977324263039,11,14,3,2,1.53794809244573,-1,0.302097517997026
2,3,69,4.66866213151927,11,11,0,3,0.542708771303296,-1,0.284662509337068
2,3,70,4.40598639455782,11,12,1,2,1.28289704024792,-1,0.272489976137877
2,3,71,3.9590022675737,11,11,0,3,2.31771847419441,-1,0.442924419417977
2,3,72,4.05478458049887,11,11,0,3,1.25874629057944,-1,0.330218395218253
2,3,73,4.44807256235828,11,11,0,3,0.621527472510934,-1,0.0160070993006229
2,3,74,4.50031746031746,11,12,1,2,1.27903839014471,-1,0.0945901554077864
2,3,75,0.0058049886621315,11,1,-10,1,5.46445307694376,-1,0.401657517999411
2,3,76,3.84580498866213,11,11,0,2,1.31421055831015,-1,0.104978665709496
2,3,77,4.37551020408163,11,11,0,2,3.28613005578518,-1,0.0161340665072203
2,3,78,4.29133786848073,11,11,0,2,1.23420618660748,-1,0.11684743873775
2,3,79,4.76444444444444,11,11,0,2,2.95793319121003,-1,0.14449611119926
2,3,80,4.16943310657596,11,11,0,2,0.398166880011559,-1,0.135447416454554
2,3,81,4.77605442176871,11,11,0,2,0.40684787556529,-1,0.23372588865459
2,3,82,4.26521541950113,11,11,0,3,0.747209493070841,-1,0.295889768749475
2,3,83,4.96471655328798,11,13,2,2,0.429179333150387,-1,1.07207011990249
2,3,84,4.22312925170068,11,11,0,3,0.398896960541606,-1,0.0979050509631634
2,3,85,4.32761904761905,11,11,0,3,0.425524555146694,-1,0.147712100297213
2,3,86,4.74848072562358,11,12,1,2,2.20679944753647,-1,0.480790439993143
2,3,87,4.51192743764172,11,11,0,3,0.312790924683213,-1,0.120563991367817
2,3,88,4.54530612244898,11,13,2,1,1.38019337877631,-1,0.534301582723856
2,3,89,4.99954648526077,11,12,1,2,0.571739636361599,-1,0.296293260529637
2,3,90,4.85006802721088,11,12,1,2,0.479011839255691,-1,0.383671311661601
2,3,91,5.45233560090703,11,13,2,1,0.803614843636751,-1,0.350585808977485
2,4,1,2.46857142857143,7,6,-1,2,1.29802270792425,-1,2.01600582711399
2,4,2,2.63836734693878,7,7,0,2,0.940347783267498,-1,1.12874807603657
2,4,3,2.51646258503401,7,7,0,3,0.7024409417063,-1,0.34072751738131
2,4,4,2.86766439909297,7,7,0,3,0.193499905988574,-1,0.0546016693115234
2,4,5,3.03746031746032,7,7,0,3,0.218215126544237,-1,0.016920005902648
2,4,6,2.75446712018141,7,8,1,3,0.344336559996009,-1,0.110010962933302
2,4,7,2.66884353741497,7,7,0,2,3.65037632733583,-1,0.0725582204759121
2,4,8,2.48453514739229,7,7,0,3,2.69697604328394,-1,0.0169205348938704
2,4,9,2.37133786848073,7,7,0,3,1.4320828281343,-1,0.368194084614515
2,4,10,0.0058049886621315,7,1,-6,1,3.33752545900643,-1,0.211367992684245
2,4,11,2.83573696145125,7,8,1,2,2.11440978385508,-1,0.0647018607705832
2,4,12,2.87201814058957,7,7,0,3,0.276210006326437,-1,0.149157183244824
2,4,13,0.0058049886621315,7,1,-6,1,2.28730355203152,-1,0.0560471918433905
2,4,14,2.90975056689342,7,7,0,3,0.34725608676672,-1,0.0168118868023157
2,4,15,2.5687074829932,7,7,0,3,0.572956236079335,-1,0.121941436082125
2,4,16,2.87492063492064,7,7,0,3,0.554281264543533,-1,0.0870680492371321
2,4,17,2.61079365079365,7,7,0,3,0.17069449275732,-1,0.0169394090771675
2,4,18,2.62095238095238,7,7,0,3,0.175073834136128,-1,0.0170898269861937
2,4,19,1.96789115646258,7,6,-1,2,0.347640547901392,-1,0.0165939833968878
2,4,20,2.58031746031746,7,6,-1,2,0.230188559740782,-1,0.0160230845212936
2,4,21,3.16371882086168,7,8,1,2,0.712327145040035,-1,0.0164755377918482
2,4,22,3.04036281179138,7,7,0,3,0.193006841465831,-1,0.0165163166821003
2,4,23,2.51356009070295,7,7,0,1,0.27286633476615,-1,0.0416896622627974
2,4,24,2.32199546485261,7,7,0,2,0.348713353276253,-1,0.0498419273644686
2,4,25,2.2465306122449,7,6,-1,2,0.951248371973634,-1,0.0499681755900383
2,4,26,2.18557823129252,7,6,-1,1,0.682017529383302,-1,0.450041243806481
2,4,27,2.83718820861678,7,7,0,2,1.2413576208055,-1,7.09831994771957
2,4,28,2.25233560090703,7,6,-1,2,0.66764117218554,-1,0.016584163531661
2,4,29,2.31328798185941,7,6,-1,2,0.784708259627223,-1,0.0159303471446037
2,4,30,2.73560090702948,7,7,0,3,0.139817379415035,-1,0.0166337732225657
2,4,31,2.83863945578231,7,7,0,3,0.228681394830346,-1,0.0160944610834122
2,4,32,3.70068027210884,7,9,2,3,0.196844883263111,-1,0.0245525799691677
2,4,33,3.27546485260771,7,8,1,2,1.05089635401964,-1,0.0161304473876953
2,4,34,3.2928798185941,7,8,1,2,0.429816709831357,-1,0.158307179808617
2,4,35,3.10131519274376,7,9,2,1,0.503369003534317,-1,0.174313474446535
2,4,36,2.70802721088435,7,7,0,3,0.21945222094655,-1,0.020028579980135
2,4,37,3.14195011337868,7,9,2,2,0.239377543330193,-1,0.105973811820149
2,4,38,1.00281179138322,7,3,-4,1,4.09498602151871,-1,0.0162324700504541
2,4,39,3.30884353741497,7,8,1,3,0.286434540525079,-1,1.05555482953787
2,4,40,2.93877551020408,7,7,0,3,0.265697330236435,-1,0.18621370382607
2,4,41,3.29142857142857,7,8,1,2,1.97876861877739,-1,0.155608618631959
2,4,42,3.06793650793651,7,7,0,3,3.45401298254728,-1,0.0159693248569965
2,4,43,2.4584126984127,7,8,1,2,0.301554124802351,-1,6.61209193430841
2,4,44,2.76462585034014,7,7,0,2,0.287520304322243,-1,0.0167150311172009
2,4,45,2.22766439909297,7,6,-1,2,0.435417184606194,-1,4.38960315659642
2,4,46,2.49904761904762,7,7,0,3,0.203233234584332,-1,0.0162201356142759
2,4,47,2.77043083900227,7,8,1,3,0.293844051659107,-1,1.46336233057082
2,4,48,2.69496598639456,7,7,0,3,0.299179702997208,-1,0.0160702597349882
2,4,49,2.47002267573696,7,7,0,3,0.25001859292388,-1,0.016126723960042
2,4,50,2.42793650793651,7,6,-1,3,0.344008013606071,-1,0.0168800707906485
2,4,51,3.3190022675737,7,9,2,1,0.283851351588964,-1,0.0161358751356602
2,4,52,2.52662131519274,7,7,0,2,0.678611803799868,-1,0.150279428809881
2,4,53,2.7849433106576,7,6,-1,2,4.71587184816599,-1,1.55047984607518
2,4,54,2.64997732426304,7,7,0,2,0.293328572064638,-1,0.540336115285754
2,4,55,2.74285714285714,7,7,0,2,0.22341432608664,-1,1.61018931865692
2,4,56,2.28136054421769,7,7,0,3,0.271627986803651,-1,1.57633983530104
2,4,57,3.08825396825397,7,8,1,2,0.923489207401872,-1,0.0417771860957146
2,4,58,2.48453514739229,7,7,0,2,0.649342710152268,-1,0.0162737239152193
2,4,59,2.8821768707483,7,7,0,3,0.283399688079953,-1,0.0162342377007008
2,4,60,2.49324263038549,7,7,0,3,1.40269424580038,-1,0.0161451324820518
2,4,61,2.85895691609977,7,7,0,3,0.20763991959393,-1,1.22769851237535
2,4,62,3.05632653061224,7,7,0,3,0.407766088843346,-1,0.827322809025645
2,4,63,2.31328798185941,7,7,0,3,0.253690844401717,-1,1.15094856917858
2,4,64,2.87201814058957,7,7,0,3,0.463887058198452,-1,0.272096648812294
2,4,65,3.09260770975057,7,8,1,1,0.263298997655511,-1,0.0170045681297779
2,4,66,3.43800453514739,7,8,1,2,0.276165867224336,-1,0.0168900657445192
2,4,67,2.76027210884354,7,7,0,2,0.318703828379512,-1,0.0169176571071148
2,4,68,1.53106575963719,7,4,-3,2,0.357228267937899,-1,0.0253662075847387
2,4,69,2.67319727891156,7,7,0,3,0.227542800828815,-1,0.0160681679844856
2,4,70,2.40761904761905,7,7,0,3,0.352501412853599,-1,0.782378634437919
2,4,71,2.74285714285714,7,8,1,2,0.372335309162736,-1,0.0167098734527826
2,4,72,2.47727891156463,7,7,0,3,0.307623740285635,-1,0.0168160907924175
2,4,73,2.55854875283447,7,7,0,2,0.416677927598357,-1,0.016771599650383
2,4,74,2.8952380952381,7,7,0,3,0.236048659309745,-1,0.016175102442503
2,4,75,2.45986394557823,7,7,0,3,0.275504903867841,-1,0.0169808734208345
2,4,76,2.63401360544218,7,7,0,3,0.310657940804958,-1,0.0162971839308739
2,4,77,2.73850340136054,7,7,0,2,0.377757797017694,-1,0.0169793553650379
2,4,78,1.96208616780045,7,6,-1,2,0.290560951456428,-1,0.0158787854015827
2,4,79,2.37133786848073,7,6,-1,3,0.258205149322748,-1,0.0161662846803665
2,4,80,2.54403628117914,7,7,0,3,2.56077618710697,-1,0.016199242323637
2,4,81,2.97360544217687,7,7,0,3,0.340118603780866,-1,0.0162262748926878
2,4,82,2.77043083900227,7,7,0,3,0.255377233028412,-1,0.0162709355354309
2,4,83,2.77333333333333,7,7,0,3,0.192266348749399,-1,0.0164437890052795
2,4,84,2.54548752834467,7,7,0,3,0.211913807317615,-1,0.0166768375784159
2,4,85,2.49904761904762,7,7,0,3,0.253866117447615,-1,0.0158384516835213
2,4,86,2.69351473922903,7,7,0,2,0.350461294874549,-1,0.0159357655793428
2,4,87,2.64562358276644,7,7,0,3,0.277299549430609,-1,0.117029875516891
2,4,88,2.57886621315193,7,7,0,3,0.254048073664308,-1,0.0165977627038956
2,4,89,3.02149659863946,7,7,0,3,0.29981891065836,-1,0.0159406345337629
2,4,90,2.81977324263039,7,7,0,3,0.267853364348412,-1,0.0165596399456263
2,4,91,3.15501133786848,7,9,2,2,0.28446189686656,-1,0.0159773640334606
2,4,92,2.4584126984127,7,7,0,2,0.310733025893569,-1,0.0166697334498167
2,4,93,2.43229024943311,7,7,0,3,0.250301908701658,-1,0.0167271792888641
2,4,94,2.61514739229025,7,7,0,3,0.274226777255535,-1,0.0160969849675894
2,4,95,2.34956916099773,7,7,0,3,0.261756172403693,-1,0.0162859801203012
2,4,96,2.74866213151927,7,7,0,3,0.251346055418253,-1,0.0168768223375082
2,4,97,2.90394557823129,7,7,0,3,0.227848121896386,-1,0.0162911806255579
2,4,98,2.97360544217687,7,7,0,3,0.499236188828945,-1,0.0161265674978495
2,4,99,2.5730612244898,7,7,0,3,0.307189187034965,-1,0.0168973002582788
2,4,100,2.97070294784581,7,8,1,3,0.321148736402392,-1,0.0161135718226433
2,4,101,3.12453514739229,7,8,1,2,0.365715816617012,-1,0.0159620698541403
2,4,102,2.77913832199547,7,7,0,3,0.170211603865027,-1,1.69416115805507
2,4,103,3.15065759637188,7,7,0,2,0.553197713568807,-1,0.0467962175607681
2,4,104,2.68190476190476,7,7,0,2,0.586771158501506,-1,0.0856044180691242
2,4,105,2.25668934240363,7,6,-1,2,1.29102061875165,-1,0.0161093175411224
2,4,106,2.62530612244898,7,7,0,3,0.44484842941165,-1,0.0165204871445894
2,4,107,2.60208616780045,7,6,-1,2,0.954037025570869,-1,0.0233767051249743
2,4,108,2.59482993197279,7,7,0,3,0.275642644613981,-1,0.0170020330697298
2,4,109,2.8952380952381,7,7,0,3,0.226477785035968,-1,0.0168665945529938
2,4,110,2.85024943310658,7,7,0,3,0.254338812083006,-1,0.0169344209134579
2,4,111,2.80235827664399,7,7,0,3,0.275429708883166,-1,0.0163112264126539
2,4,112,2.62095238095238,7,7,0,3,0.289382942020893,-1,0.448908284306526
2,4,113,2.83138321995465,7,7,0,2,0.316989302635193,-1,0.37070544436574
2,4,114,2.92571428571429,7,7,0,3,0.339573739096522,-1,0.0326276086270809
2,4,115,2.69061224489796,7,7,0,3,0.578939966857433,-1,0.0791130121797323
2,4,116,2.86621315192744,7,7,0,3,0.241328841075301,-1,0.0160271599888802
2,4,117,3.00988662131519,7,7,0,3,0.371488872915506,-1,0.150050120428205
2,4,118,2.89378684807256,7,7,0,3,0.352631391957402,-1,0.0776945743709803
2,4,119,2.86331065759637,7,8,1,3,0.706788463518023,-1,0.432853113859892
2,4,120,2.85024943310658,7,7,0,3,0.419648699462414,-1,0.199041683226824
2,4,121,3.09696145124717,7,7,0,3,0.373809112235904,-1,0.0493535622954369
2,4,122,2.26539682539683,7,6,-1,3,0.412552224472165,-1,0.0164041761308908
2,4,123,2.66303854875283,7,7,0,2,0.309036023914814,-1,0.0912472512573004
2,4,124,3.02439909297052,7,7,0,3,0.273853536695242,-1,0.0163902621716261
2,4,125,2.51065759637188,7,7,0,3,0.561586754396558,-1,0.0170606411993504
3,3,1,1.72408163265306,7,6,-1,3,1.04213630408049,-1,0.906162571161985
3,3,2,2.54839002267574,7,7,0,3,1.72426057048142,-1,0.331099869683385
3,3,3,3.35238095238095,7,8,1,2,1.62242566421628,-1,0.223622471094131
3,3,4,3.55265306122449,7,9,2,1,0.660330137237906,-1,0.12451634183526
3,3,5,2.65868480725624,7,6,-1,3,0.986003145575523,-1,0.556402018293738
3,3,6,2.53532879818594,7,7,0,1,0.756978603079915,-1,0.415693383663893
3,3,7,2.41487528344671,7,6,-1,1,1.16872872970998,-1,0.123425047844648
3,3,8,2.20444444444444,7,6,-1,2,0.931137943640351,-1,0.632476851344109
3,3,9,2.67755102040816,7,6,-1,2,0.0156114082783461,-1,3.63648490048945
3,3,10,1.81551020408163,7,5,-2,1,1.16291964054108,-1,0.127959348261356
3,3,11,2.63981859410431,7,7,0,1,1.04617973230779,-1,0.110745871439576
3,3,12,2.29151927437642,7,6,-1,2,1.29725780896842,-1,0.136899957433343
3,3,13,2.0259410430839,7,7,0,1,1.08014891669154,-1,0.103084037080407
3,3,14,3.41478458049887,7,8,1,1,0.980893896892667,-1,0.0166598428040743
3,3,15,2.51791383219955,7,7,0,1,0.578518103808165,-1,0.0214878432452679
3,3,16,2.98666666666667,7,8,1,1,0.937636440619826,-1,0.0458934064954519
3,3,17,2.97360544217687,7,7,0,1,0.703282281756401,-1,0.0304721724241972
3,3,18,2.67319727891156,7,7,0,3,0.701134210452437,-1,1.06834815628827
3,3,19,2.61079365079365,7,7,0,3,0.658378452062607,-1,0.32881210744381
3,3,20,2.58176870748299,7,7,0,1,1.40751403011382,-1,0.225709913298488
3,3,21,2.780589569161,7,7,0,1,0.465359658002853,-1,0.0902508925646544
3,3,22,2.8734693877551,7,7,0,1,0.958190910518169,-1,0.0196343678981066
3,3,23,2.00272108843537,7,6,-1,2,1.52008731849492,-1,0.0213786475360394
3,3,24,2.65142857142857,7,7,0,3,0.908845724537969,-1,0.0166605729609728
3,3,25,2.44825396825397,7,7,0,3,0.898107171058655,-1,0.0722147319465876
3,3,26,2.99102040816327,7,7,0,2,2.61683791130781,-1,0.0813741981983185
3,3,27,2.5643537414966,7,7,0,1,0.715916696935892,-1,0.016715407371521
3,3,28,3.37269841269841,7,8,1,1,0.612495701760054,-1,0.0162827931344509
3,3,29,2.51210884353742,7,6,-1,1,1.09140037372708,-1,3.60173628292978
3,3,30,2.34666666666667,7,6,-1,1,0.880449833348393,-1,0.0793815683573484
3,3,31,2.49904761904762,7,7,0,1,0.502570543438196,-1,0.0288214161992073
3,3,32,3.31609977324263,7,8,1,1,1.15744591876864,-1,0.105207301676273
3,3,33,2.20444444444444,7,7,0,1,2.02724318765104,-1,0.204243049025536
3,3,34,2.58757369614512,7,7,0,2,0.0160702355206013,-1,2.46898951567709
3,3,35,2.49759637188209,7,7,0,2,1.51054875180125,-1,0.0161027703434229
3,3,36,2.56580498866213,7,6,-1,2,1.19023333862424,-1,0.0160741675645113
3,3,37,2.69496598639456,7,8,1,1,1.06860418617725,-1,0.0164181515574455
3,3,38,2.50340136054422,7,6,-1,1,2.14335600286722,-1,0.162304189056158
3,3,39,2.92716553287982,7,7,0,1,0.972779370844364,-1,0.0651493165642023
3,3,40,2.85460317460317,7,8,1,2,0.596896067261696,-1,0.0160429682582617
3,3,41,2.84299319727891,7,8,1,1,0.755453918129206,-1,0.0164032559841871
3,3,42,2.88362811791383,7,7,0,2,1.13955765776336,-1,0.128605326637626
3,3,43,2.45551020408163,7,6,-1,2,2.02064630948007,-1,0.158643703907728
3,3,44,2.43083900226757,7,7,0,1,4.64104041643441,-1,0.764526037499309
3,3,45,2.69496598639456,7,6,-1,1,1.935886381194,-1,0.0606930814683437
3,3,46,2.57015873015873,7,7,0,2,2.13597366958857,-1,0.0163327269256115
3,3,47,3.46267573696145,7,9,2,1,0.543422061949968,-1,0.016195073723793
3,3,48,2.57451247165533,7,7,0,2,0.712304573506117,-1,1.10327003523707
3,3,49,2.4453514739229,7,7,0,1,0.803318319842219,-1,0.0290428996086121
3,3,50,2.49034013605442,7,6,-1,1,1.73814495839179,-1,0.0162823330610991
3,3,51,2.2378231292517,7,6,-1,2,0.552183359861374,-1,0.0164077375084162
3,3,52,2.11156462585034,7,6,-1,1,0.880807349458337,-1,0.0164029784500599
3,3,53,2.13478458049887,7,6,-1,2,1.04299469478428,-1,0.564272092655301
3,3,54,2.6615873015873,7,6,-1,1,1.5523330308497,-1,0.25111603923142
3,3,55,2.32780045351474,7,6,-1,2,0.747110672295094,-1,1.03944825939834
3,3,56,3.18984126984127,7,7,0,2,1.3687274325639,-1,0.195718815550208
3,3,57,2.63836734693878,7,6,-1,2,1.42709878645837,-1,0.0160542689263821
3,3,58,3.07083900226757,7,8,1,1,1.12569348141551,-1,0.138390269130468
3,3,59,3.01278911564626,7,7,0,2,0.761873446404934,-1,1.07724571414292
3,3,60,2.16380952380952,7,6,-1,2,0.594148337841034,-1,1.14749122783542
3,3,61,2.2508843537415,7,5,-2,2,0.739056659862399,-1,0.0879427287727594
3,3,62,2.50630385487528,7,6,-1,2,0.445382623001933,-1,0.0163793861865997
3,3,63,2.53387755102041,7,6,-1,1,1.01916792057455,-1,0.125386109575629
3,3,64,2.8734693877551,7,7,0,1,0.928164798766375,-1,0.166913190856576
3,3,65,1.81986394557823,7,6,-1,2,1.43435730226338,-1,0.123124139383435
3,3,66,2.8908843537415,7,7,0,2,0.0159690268337727,-1,1.5169965326786
3,3,67,2.70657596371882,7,8,1,2,0.0163338091224432,-1,2.19895099662244
3,3,68,2.42213151927438,7,6,-1,1,1.3937898427248,-1,0.165130445733666
3,3,69,2.96054421768707,7,7,0,1,2.04585462622344,-1,0.541886178776622
3,3,70,2.59773242630386,7,7,0,2,0.677073150873184,-1,0.574013743549585
3,3,71,3.0853514739229,7,7,0,2,1.10070873610675,-1,0.177621839568019
3,3,72,2.48598639455782,7,7,0,2,0.867965875193477,-1,0.0167174562811852
3,3,73,2.69496598639456,7,7,0,2,0.660943379625678,-1,0.0162809081375599
3,3,74,2.77043083900227,7,8,1,1,0.820004222914577,-1,0.107575776055455
3,3,75,2.01578231292517,7,6,-1,1,1.56154005602002,-1,0.836811011657119
3,3,76,2.3350566893424,7,6,-1,2,0.816266030073166,-1,0.0490838773548603
3,3,77,2.04770975056689,7,6,-1,1,1.05630915425718,-1,0.856383007019758
3,3,78,3.18113378684807,7,7,0,1,0.823044199496508,-1,0.535143272951245
3,3,79,2.05206349206349,7,6,-1,2,0.437862064689398,-1,0.680045563727617
3,3,80,2.23201814058957,7,7,0,2,1.44957229495049,-1,0.28074393607676
3,3,81,2.7762358276644,7,7,0,3,1.55631621181965,-1,0.865181328728795
3,3,82,2.6790022675737,7,7,0,1,1.88912718556821,-1,0.200037458911538
3,3,83,2.36408163265306,7,7,0,1,1.2543869651854,-1,0.118088897317648
3,3,84,3.01859410430839,7,7,0,1,1.38687090203166,-1,0.573801735416055
3,3,85,2.41777777777778,7,7,0,2,1.9916256275028,-1,1.49658353254199
3,3,86,2.37424036281179,7,7,0,2,1.77509547583759,-1,0.0159026868641376
3,3,87,3.16952380952381,7,8,1,2,1.84759822301567,-1,0.224579077214003
3,3,88,3.31609977324263,7,9,2,1,1.06604749150574,-1,0.258279722183943
3,3,89,2.16235827664399,7,6,-1,2,0.70531134866178,-1,1.73663991503417
3,3,90,2.4584126984127,7,6,-1,2,1.2958064712584,-1,0.159684900194407
3,3,91,2.06947845804989,7,7,0,1,1.10166144184768,-1,0.116128338500857
3,3,92,2.39455782312925,7,7,0,2,0.89539553783834,-1,0.941942472010851
3,3,93,2.20734693877551,7,7,0,1,0.817125100642443,-1,0.0586722828447819
3,3,94,2.2334693877551,7,6,-1,2,0.782380007207394,-1,0.113235345110297
3,3,95,2.4497052154195,7,6,-1,1,1.15215410850942,-1,1.79459100402892
3,3,96,3.04181405895692,7,8,1,1,2.08942482806742,-1,0.326205801218748
3,3,97,1.86049886621315,7,6,-1,1,0.901714319363236,-1,0.35637129470706
3,3,98,2.361179138322,7,7,0,1,0.588778233155608,-1,0.648956650868058
3,3,99,3.03020408163265,7,8,1,2,0.821324780583382,-1,0.408211011439562
3,3,100,2.62095238095238,7,7,0,3,0.797772569581866,-1,0.0791083350777626
3,3,101,2.20734693877551,7,6,-1,2,0.497108923271298,-1,0.0805061496794224
3,3,102,2.70947845804989,7,7,0,1,0.731851967051625,-1,0.0250112935900688
3,3,103,2.25668934240363,7,6,-1,2,1.68103218078613,-1,0.0549108143895864
3,3,104,2.15510204081633,7,6,-1,1,1.08991539105773,-1,0.104102091863751
3,4,1,3.09986394557823,11,9,-2,2,0.929061908274889,-1,0.0170051716268063
3,4,2,3.95609977324263,11,11,0,2,0.903289360925555,-1,0.0620229355990887
3,4,3,3.51056689342404,11,10,-1,1,0.856911383569241,-1,0.84996291436255
3,4,4,3.99963718820862,11,11,0,1,1.07314045168459,-1,0.0978545639663935
3,4,5,3.46412698412698,11,9,-2,1,0.839154964312911,-1,0.0167028233408928
3,4,6,2.83138321995465,11,7,-4,1,1.12342737615108,-1,0.206126037985086
3,4,7,3.05777777777778,11,7,-4,1,0.572018601000309,-1,0.0163713600486517
3,4,8,4.33487528344671,11,10,-1,3,0.718247735872865,-1,0.506963172927499
3,4,9,3.28997732426304,11,9,-2,2,0.74214730784297,-1,0.0169501081109047
3,4,10,2.73850340136054,11,8,-3,1,3.55858236178756,-1,0.0169476475566626
3,4,11,3.88789115646258,11,11,0,2,1.55706644058228,-1,0.0163037739694118
3,4,12,3.2972335600907,11,9,-2,1,0.726005965843797,-1,0.0160728879272938
3,4,13,3.43655328798186,11,9,-2,1,0.8848722204566,-1,0.0165113098919392
3,4,14,4.24780045351474,11,11,0,1,0.81275481544435,-1,0.0169310662895441
3,4,15,3.86176870748299,11,10,-1,1,0.71374643035233,-1,0.0165735725313425
3,4,16,4.30730158730159,11,11,0,1,1.00299973227084,-1,0.0161229781806469
3,4,17,4.07800453514739,11,11,0,1,0.467260837554932,-1,0.0166095439344645
3,4,18,3.57442176870748,11,9,-2,1,0.545604074373841,-1,0.0163437705487013
3,4,19,4.3697052154195,11,11,0,1,0.862039800733328,-1,0.016451021656394
3,4,20,3.92562358276644,11,10,-1,2,1.35833554156125,-1,0.129440996795893
3,4,21,3.92707482993197,11,10,-1,3,2.06166311167181,-1,0.0166478827595711
3,4,22,4.4887074829932,11,11,0,2,1.67485521361232,-1,0.0158726796507835
3,4,23,3.02875283446712,11,8,-3,1,1.65641499124467,-1,0.864354411140084
3,4,24,3.34367346938776,11,9,-2,2,1.77225548401475,-1,0.310717677697539
3,4,25,3.11727891156463,11,9,-2,2,0.624346191063523,-1,0.387660678476095
3,4,26,3.22176870748299,11,9,-2,2,0.801423834636807,-1,0.148546108976007
3,4,27,3.4118820861678,11,9,-2,1,1.3519285954535,-1,0.0158356539905071
3,4,28,3.08390022675737,11,8,-3,1,0.599041199311614,-1,0.0164965391159058
3,4,29,3.66875283446712,11,10,-1,2,1.93063489533961,-1,0.0159823428839445
3,4,30,3.4162358276644,11,9,-2,1,1.51392673142254,-1,0.207310879603028
3,4,31,3.57006802721088,11,9,-2,1,0.692910084500909,-1,0.0164535790681839
3,4,32,3.99528344671202,11,10,-1,1,0.4774732850492,-1,0.0168122742325068
3,4,33,3.67310657596372,11,9,-2,2,0.799373967573047,-1,0.201875705271959
3,4,34,3.80371882086168,11,10,-1,3,0.492948304861784,-1,0.64464808255434
3,4,35,3.01859410430839,11,8,-3,2,1.33902674913406,-1,0.705054432153702
3,4,36,3.23047619047619,11,8,-3,1,2.42748705111444,-1,0.570138609036803
3,4,37,3.86467120181406,11,11,0,1,1.1036000084132,-1,0.0168560240417719
3,4,38,4.33052154195011,11,12,1,1,1.501857759431,-1,0.0373924430459738
3,4,39,3.98367346938775,11,12,1,1,0.719550462439656,-1,0.166071470826864
3,4,40,4.09687074829932,11,10,-1,1,0.600790129974484,-1,0.0160394180566072
3,4,41,3.48444444444444,11,9,-2,1,0.789355475455523,-1,0.0169671159237623
3,4,42,3.5134693877551,11,10,-1,1,0.629696745425463,-1,0.0169644728302956
3,4,43,3.90965986394558,11,10,-1,2,1.05796356871724,-1,0.0164541713893414
3,4,44,3.56136054421769,11,9,-2,1,1.64357871934772,-1,0.0263249315321445
3,4,45,3.33351473922902,11,9,-2,1,0.257179724052548,-1,0.353623390197754
3,4,46,3.68907029478458,11,9,-2,3,0.933838846161962,-1,0.825341887772083
3,4,47,3.99238095238095,11,10,-1,3,1.52864778414369,-1,0.165816308930516
3,4,48,3.07374149659864,11,9,-2,2,1.13665207661688,-1,0.0373340845108032
3,4,49,3.85741496598639,11,9,-2,3,1.71542523615062,-1,0.0481326412409544
3,4,50,4.28698412698413,11,10,-1,2,1.55649404786527,-1,4.71925212442875
3,4,51,4.22603174603175,11,10,-1,1,1.48160958476365,-1,0.0163878872990608
3,4,52,3.62086167800454,11,9,-2,1,0.833650020882487,-1,0.0159643813967705
3,4,53,4.30149659863946,11,11,0,1,1.34385607205331,-1,0.0368938911706209
3,4,54,3.94884353741497,11,9,-2,1,1.03726644814014,-1,0.470125028863549
3,4,55,4.13895691609977,11,10,-1,1,1.80243229493499,-1,1.88300508074462
3,4,56,4.01850340136054,11,9,-2,1,1.86716546118259,-1,5.61919441446662
3,4,57,3.18258503401361,11,9,-2,2,1.86776983365417,-1,0.585120486095548
3,4,58,3.63392290249433,11,9,-2,3,0.678873553872108,-1,0.134085616096854
3,4,59,3.68471655328798,11,10,-1,2,1.38672357052565,-1,0.486205853521824
3,4,60,4.08671201814059,11,10,-1,1,1.70284283161163,-1,0.749707996845245
3,4,61,3.22176870748299,11,9,-2,1,0.615089766681194,-1,0.0163228083401918
3,4,62,3.70068027210884,11,9,-2,1,0.968855410814285,-1,0.0166286733001471
3,4,63,4.58448979591837,11,11,0,1,2.06084848940372,-1,1.48939947783947
3,4,64,3.88934240362812,11,10,-1,2,1.92908431589603,-1,0.0168159212917089
3,4,65,3.62521541950113,11,9,-2,2,1.43745419383049,-1,0.0169301889836788
3,4,66,3.59619047619048,11,9,-2,1,2.2311522308737,-1,0.0567750912159681
3,4,67,3.69197278911565,11,9,-2,1,0.785913227126002,-1,0.941707439720631
3,4,68,3.38721088435374,11,9,-2,1,1.01514886319637,-1,0.0577044859528542
3,4,69,3.11147392290249,11,8,-3,1,2.60484131798148,-1,0.0705490652471781
3,4,70,4.34648526077097,11,11,0,1,0.883301546797156,-1,0.0751085747033358
3,4,71,4.30730158730159,11,12,1,1,0.639551671221852,-1,0.0406617783010006
3,4,72,3.17823129251701,11,9,-2,1,0.863647671416402,-1,0.0170089285820723
3,4,73,4.40018140589569,11,10,-1,1,1.44428817369044,-1,0.0163916014134884
3,4,74,6.16780045351474,11,15,4,1,1.10195232182741,-1,1.03596310317516
3,4,75,3.57442176870748,11,9,-2,1,0.856708159670234,-1,1.11225685477257
3,4,76,4.281179138322,11,11,0,1,0.387429893016815,-1,0.047135541215539
3,4,77,2.29151927437642,11,7,-4,1,0.827124707400799,-1,0.016274219378829
3,4,78,3.24063492063492,11,9,-2,1,1.02603430114686,-1,0.0269244965165854
3,4,79,3.83274376417234,11,10,-1,2,1.18001686409116,-1,0.031802698969841
3,4,80,2.78349206349206,11,7,-4,1,0.945419164374471,-1,0.0863492228090763
3,4,81,3.18113378684807,11,9,-2,1,0.616107903420925,-1,0.210189990699291
3,4,82,3.70068027210884,11,10,-1,2,1.34625351987779,-1,1.4868405610323
3,4,83,3.48299319727891,11,9,-2,3,1.01199648715556,-1,0.269880970939994
3,4,84,3.70938775510204,11,10,-1,3,1.23099243454635,-1,2.47325743921101
3,4,85,4.62512471655329,11,10,-1,3,1.11284335702658,-1,0.391587536782026
3,4,86,2.93006802721088,11,8,-3,1,0.512675676494837,-1,0.0469626840204
3,4,87,3.04326530612245,11,8,-3,1,0.591071356087923,-1,0.0160004738718271
3,4,88,3.24353741496599,11,9,-2,3,1.02197678945959,-1,0.0646789073944092
3,4,89,3.11147392290249,11,9,-2,2,1.34966293908656,-1,0.0160988587886095
3,4,90,3.05052154195011,11,8,-3,1,1.58275402337313,-1,0.297986343502998
3,4,91,3.78485260770975,11,10,-1,1,0.697925044223666,-1,0.0554486475884914
3,4,92,3.48299319727891,11,10,-1,1,3.84744814783335,-1,0.413060184568167
3,4,93,3.03310657596372,11,9,-2,1,0.650277737528086,-1,0.274178180843592
3,4,94,3.29433106575964,11,8,-3,2,0.820425014942884,-1,0.116428723558784
3,4,95,0.0058049886621315,11,1,-10,1,2.43961123935878,-1,0.367900611832738
4,3,1,4.16362811791383,11,12,1,3,0.428914246993372,-1,0.359706937015289
4,3,2,4.58448979591837,11,11,0,2,1.82850799500011,-1,1.41058395200525
4,3,3,4.51773242630385,11,11,0,2,1.62439990098937,-1,0.855577973008621
4,3,4,6.4,11,16,5,2,0.861495627003023,-1,0.325835433992324
4,3,5,4.43936507936508,11,12,1,3,1.04199830099242,-1,2.02410874000634
4,3,6,4.67591836734694,11,12,1,3,7.51206239199382,-1,1.56238683898118
4,3,7,5.78467120181406,11,16,5,1,0.643904972006567,-1,0.675748103996739
4,3,8,5.67582766439909,11,15,4,3,1.60274652900989,-1,0.392807224998251
4,3,9,4.75573696145125,11,12,1,2,1.09029389798525,-1,0.399463172012474
4,3,10,5.14902494331066,11,13,2,2,0.626149543008069,-1,0.337073798989877
4,3,11,5.41605442176871,11,14,3,2,1.27615467400756,-1,0.367269533016952
4,3,12,4.67011337868481,11,12,1,1,0.986251391994301,-1,1.07336005900288
4,3,13,4.98358276643991,11,12,1,2,2.55806380999275,-1,1.68459920401801
4,3,14,4.6918820861678,11,11,0,3,1.55669399400358,-1,0.462129238992929
4,3,15,4.19410430839002,11,11,0,2,0.775295530009316,-1,0.346010987996124
4,3,16,5.23174603174603,11,13,2,2,0.464506557997083,-1,0.337135203008074
4,3,17,6.2940589569161,11,16,5,3,0.4008374880068,-1,0.299481221998576
4,3,18,4.69478458049887,11,13,2,2,1.59841289999895,-1,0.341562846995657
4,3,19,4.51773242630385,11,11,0,2,0.586547979008174,-1,0.501127605995862
4,3,20,6.34630385487528,11,17,6,3,0.591248115000781,-1,2.07342612498906
4,3,21,6.26213151927438,11,16,5,3,1.2421350699733,-1,0.361444562993711
4,3,22,6.9340589569161,11,16,5,3,0.658858907001559,-1,0.12921110301977
4,3,23,6.25922902494331,11,14,3,2,0.283911676000571,-1,0.0261014919960871
4,3,24,6.20843537414966,11,17,6,2,1.3783140660089,-1,0.490644987003179
4,3,25,6.47691609977324,11,15,4,2,1.63888890200178,-1,0.403693459986243
4,3,26,4.24199546485261,11,12,1,2,0.902594170998782,-1,0.427768295019632
4,3,27,2.52952380952381,11,7,-4,2,0.26741476499592,-1,1.63718298601452
4,3,28,3.89224489795918,11,9,-2,3,0.526355553010944,-1,0.389085734001128
4,3,29,2.81396825396825,11,8,-3,3,0.687100412003929,-1,0.357677196996519
4,3,30,4.19120181405896,11,12,1,3,1.15365366201149,-1,0.171973806980532
4,3,31,3.62956916099773,11,10,-1,2,0.827547180000693,-1,0.205222013988532
4,3,32,5.28399092970522,11,14,3,2,0.469587182014948,-1,0.142255471000681
4,3,33,5.26077097505669,11,13,2,3,1.02774568099994,-1,1.07467486397945
4,3,34,6.1707029478458,11,17,6,3,0.500494787003845,-1,0.370151146984426
4,3,35,7.56825396825397,11,19,8,3,1.90897449300974,-1,0.309986501000822
4,3,36,8.94113378684807,11,22,11,3,0.440798064984847,-1,0.298347984004067
4,3,37,4.51337868480726,11,12,1,3,1.94559114400181,-1,0.657960572978482
4,3,38,4.55401360544218,11,12,1,2,1.40951487101847,-1,0.53763580400846
4,3,39,9.04272108843537,11,24,13,3,0.776963245007209,-1,0.227614909003023
4,3,40,3.67600907029478,11,10,-1,3,0.944656025996665,-1,0.636997987021459
4,3,41,6.22004535147392,11,16,5,3,0.650314601021819,-1,0.243442203005543
4,3,42,4.73832199546485,11,12,1,2,0.379854872007854,-1,0.0174424799915869
4,3,43,3.9590022675737,11,11,0,2,0.548839910014067,-1,0.225200633984059
4,3,44,3.37414965986395,11,9,-2,2,0.339936832984677,-1,2.09671762998914
4,3,45,3.42204081632653,11,8,-3,3,0.300235691014677,-1,0.242360571020981
4,3,46,3.44090702947846,11,9,-2,3,0.384727333992487,-1,0.225587065011496
4,3,47,4.3740589569161,11,11,0,3,0.424928027001442,-1,0.23504438000964
4,3,48,4.96761904761905,11,12,1,3,0.291746143018827,-1,0.0171465169987641
4,3,49,5.03147392290249,11,12,1,2,1.10984015397844,-1,0.185549029003596
4,3,50,4.77315192743764,11,12,1,2,0.511614721006481,-1,1.11644972098293
4,3,51,4.56417233560091,11,11,0,2,0.560148040007334,-1,0.084224528982304
4,3,52,3.27836734693878,11,9,-2,3,0.117423199000768,-1,0.347553626983427
4,3,53,3.7253514739229,11,9,-2,3,0.880998877983075,-1,0.325977114000125
4,3,54,4.52208616780045,11,11,0,1,0.0161383349914104,-1,0.510844667005586
4,3,55,4.09251700680272,11,12,1,2,1.69345703601721,-1,0.808089244994335
4,3,56,6.05024943310658,11,15,4,2,0.331594649003819,-1,0.376640809001401
4,3,57,5.49297052154195,11,15,4,3,0.3464012320037,-1,1.13546621400747
4,3,58,5.59165532879819,11,15,4,2,2.11447244000738,-1,0.330504507990554
4,3,59,5.06920634920635,11,14,3,3,0.981802337017143,-1,0.416333072003908
4,3,60,6.6031746031746,11,17,6,3,0.593259910005145,-1,0.436345911992248
4,3,61,6.06766439909297,11,15,4,3,0.615202030981891,-1,3.02391571298358
4,3,62,4.29859410430839,11,11,0,1,0.554810857982375,-1,0.504415900999447
4,3,63,4.32761904761905,11,12,1,2,1.09925302199554,-1,0.72824862098787
4,3,64,6.54802721088435,11,15,4,2,0.974617155996384,-1,0.384961264993763
4,3,65,7.03274376417234,11,18,7,2,1.15637167700334,-1,1.82071551898844
4,3,66,4.26086167800454,11,11,0,3,1.03224219899857,-1,0.646416102012154
4,3,67,4.23183673469388,11,11,0,1,3.55314323000493,-1,0.604709306004224
4,3,68,2.65578231292517,11,7,-4,3,0.88385431599454,-1,0.303657417010982
4,3,69,5.58585034013605,11,13,2,3,0.390751947998069,-1,0.368339537002612
4,3,70,3.398820861678,11,8,-3,3,0.394504858006258,-1,0.22858566098148
4,3,71,4.41179138321995,11,12,1,3,0.588371174002532,-1,0.773987929977011
4,3,72,4.85587301587302,11,12,1,3,0.648136278003221,-1,1.02614886598894
4,3,73,6.70331065759637,11,17,6,3,0.3534267990035,-1,0.0525693400122691
4,3,74,5.41170068027211,11,15,4,3,0.734402162983315,-1,0.0168070369982161
4,3,75,5.30285714285714,11,15,4,2,2.59395552802016,-1,0.0852650449960493
4,3,76,6.88326530612245,11,16,5,3,0.8180168819963,-1,0.57041722201393
4,3,77,5.71356009070295,11,14,3,3,0.665679886995349,-1,0.408965604001423
4,3,78,2.83138321995465,11,7,-4,3,0.375525391980773,-1,0.259659570001531
4,3,79,3.75727891156463,11,9,-2,3,0.538921665982343,-1,0.319714888988528
4,3,80,4.65414965986395,11,12,1,2,0.568435200984823,-1,0.250871159980306
4,3,81,3.91546485260771,11,10,-1,2,0.349549302016385,-1,0.162923133000731
4,3,82,5.4508843537415,11,14,3,2,0.605307290999917,-1,0.287119155022083
4,3,83,4.62802721088435,11,11,0,2,0.256185872014612,-1,0.215624357981142
4,3,84,4.63528344671202,11,12,1,3,0.374494539981242,-1,0.22406669499469
4,3,85,5.88190476190476,11,15,4,2,0.499889447004534,-1,2.4807846530166
4,3,86,4.52208616780045,11,12,1,2,0.620276009984082,-1,0.875392629008275
4,4,1,3.67165532879819,7,8,1,3,1.89495457999874,-1,0.457081784988986
4,4,2,2.63111111111111,7,7,0,3,0.414099490008084,-1,0.167586100025801
4,4,3,3.89369614512472,7,11,4,3,0.967656980006723,-1,0.200031882006442
4,4,4,4.10267573696145,7,10,3,2,0.600228085007984,-1,0.228489652014105
4,4,5,6.841179138322,7,17,10,3,0.421473315014737,-1,0.182755665999139
4,4,6,5.62068027210884,7,13,6,3,0.369069186999695,-1,0.148107465996873
4,4,7,6.66267573696145,7,17,10,3,0.440838018985232,-1,0.144452804001048
4,4,8,7.13868480725624,7,17,10,3,0.433010826003738,-1,0.235093246999895
4,4,9,2.7762358276644,7,7,0,1,0.395899910014123,-1,0.0870987260132097
4,4,10,4.10848072562358,7,11,4,2,0.336364129994763,-1,0.140768301993376
4,4,11,5.56988662131519,7,14,7,2,0.549899919016752,-1,0.265924958017422
4,4,12,3.91546485260771,7,10,3,2,0.310605581995333,-1,0.245744769985322
4,4,13,3.61795918367347,7,9,2,2,0.464981814991916,-1,0.247001120005734
4,4,14,2.4671201814059,7,7,0,3,1.25166071401327,-1,1.40258514799643
4,4,15,3.56571428571429,7,9,2,3,0.419620791013585,-1,0.125604112021392
4,4,16,3.68036281179138,7,10,3,3,0.378491643001325,-1,0.150990962982178
4,4,17,3.18984126984127,7,8,1,3,0.469211594027001,-1,0.180112300004112
4,4,18,2.58902494331066,7,7,0,2,0.763323386985576,-1,0.206963486998575
4,4,19,4.82829931972789,7,13,6,3,0.339027128007729,-1,0.11172912499751
4,4,20,4.7049433106576,7,12,5,3,1.63040260301204,-1,0.229134241992142
4,4,21,8.25324263038549,7,21,14,3,0.414360879978631,-1,0.287971418991219
4,4,22,3.68036281179138,7,9,2,3,0.38676194800064,-1,1.21353123898734
4,4,23,4.90231292517007,7,12,5,2,0.370556725974893,-1,0.151766425988171
4,4,24,2.0128798185941,7,5,-2,3,0.320620834012516,-1,0.0698153950215783
4,4,25,3.72390022675737,7,10,3,2,0.418888824991882,-1,0.07765197797562
4,4,26,3.27256235827664,7,7,0,2,0.672644867008785,-1,0.191799676016672
4,4,27,3.28417233560091,7,8,1,2,0.534337221994065,-1,0.16131558699999
4,4,28,4.67301587301587,7,11,4,2,0.313134285999695,-1,0.112754882022273
4,4,29,3.67455782312925,7,10,3,2,0.332005167001626,-1,0.337662676989567
4,4,30,2.74430839002268,7,7,0,2,0.46830177900847,-1,0.0921172539819963
4,4,31,4.89215419501134,7,12,5,2,0.375867119000759,-1,0.0756368080037646
4,4,32,5.2172335600907,7,12,5,2,0.37545513099758,-1,0.137407234986313
4,4,33,3.43510204081633,7,9,2,3,0.32964305698988,-1,0.126055122993421
4,4,34,3.97206349206349,7,11,4,2,1.32050771999639,-1,0.21022152598016
4,4,35,4.29278911564626,7,10,3,2,0.307961854996393,-1,0.160980746994028
4,4,36,3.97496598639456,7,11,4,3,0.382350003987085,-1,0.193966378981713
4,4,37,2.49179138321995,7,7,0,3,0.395665037998697,-1,1.37589361297432
4,4,38,5.47265306122449,7,14,7,3,0.356875706987921,-1,0.552260637981817
4,4,39,5.30721088435374,7,14,7,3,0.353660669992678,-1,0.0174720259965397
4,4,40,4.88199546485261,7,12,5,3,0.263827732997015,-1,0.0171719520003535
4,4,41,4.98068027210884,7,12,5,3,0.3602494810184,-1,0.10089055399294
4,4,42,5.39573696145125,7,13,6,3,0.562936058995547,-1,0.368103095999686
4,4,43,4.68027210884354,7,12,5,3,0.529059178981697,-1,0.237726291990839
4,4,44,5.89786848072562,7,15,8,3,0.50756050797645,-1,0.233766738005215
4,4,45,2.4584126984127,7,6,-1,2,0.336488130007638,-1,0.0538909320021048
4,4,46,2.31909297052154,7,7,0,2,0.174787828000262,-1,0.0432909310038667
4,4,47,2.87056689342404,7,7,0,3,0.0219376120076049,-1,0.248487186006969
4,4,48,2.84589569160998,7,7,0,3,0.191044795006746,-1,0.8180154269794
4,4,49,2.3350566893424,7,6,-1,3,0.266801299992949,-1,0.051075471972581
4,4,50,2.91555555555556,7,8,1,3,0.368025556002976,-1,1.58738424102194
4,4,51,2.26829931972789,7,7,0,3,0.409683238976868,-1,0.0287062780116685
4,4,52,3.86757369614512,7,10,3,3,0.354090139007894,-1,0.174874076998094
4,4,53,1.96789115646258,7,6,-1,3,0.328206380974734,-1,2.02884930101573
4,4,54,2.93151927437642,7,7,0,3,0.345638106984552,-1,0.017586328991456
4,4,55,2.77768707482993,7,7,0,3,0.861427148018265,-1,0.227896560973022
4,4,56,4.16507936507937,7,11,4,2,0.570743046991993,-1,0.108853835001355
4,4,57,3.63102040816327,7,9,2,3,0.462878378981259,-1,1.95143898701645
4,4,58,3.73260770975057,7,9,2,2,0.34127992001595,-1,0.354398277995642
4,4,59,3.93142857142857,7,11,4,3,0.320409334992291,-1,0.543512219010154
4,4,60,3.88498866213152,7,10,3,3,0.400287860014942,-1,3.38686825800687
4,4,61,4.17523809523809,7,11,4,1,0.303251603996614,-1,2.37478693301091
4,4,62,3.11002267573696,7,8,1,3,0.476321456982987,-1,0.643297251022886
4,4,63,3.55700680272109,7,8,1,3,1.58741917798761,-1,1.13872134700068
4,4,64,4.38421768707483,7,11,4,1,0.486343894008314,-1,0.308693255006801
4,4,65,4.62512471655329,7,12,5,2,1.59342097199988,-1,0.310849133995362
4,4,66,3.85451247165533,7,9,2,3,0.813423463987419,-1,0.31789215398021
4,4,67,4.22893424036281,7,11,4,3,1.27790832001483,-1,1.20228166898596
4,4,68,2.70802721088435,7,7,0,2,0.267021220002789,-1,0.555325638997601
4,4,69,5.29705215419501,7,13,6,3,1.02833684600773,-1,0.691558744001668
4,4,70,5.77886621315193,7,14,7,3,0.769408303021919,-1,2.96504045001348
4,4,71,2.47002267573696,7,6,-1,3,0.865077801980078,-1,0.343222694005817
4,4,72,3.60199546485261,7,10,3,3,0.621912661998067,-1,0.57416251001996
4,4,73,3.01714285714286,7,9,2,2,0.874586894002277,-1,0.232573927001795
4,4,74,4.06639455782313,7,11,4,2,1.57778479799163,-1,0.290732602996286
4,4,75,4.95310657596372,7,13,6,2,0.820957413001452,-1,0.284877897996921
4,4,76,4.49451247165533,7,11,4,2,0.939781410997966,-1,0.46158393699443
4,4,77,3.34947845804989,7,8,1,1,1.45065899399924,-1,0.318974562978838
4,4,78,5.07646258503401,7,14,7,1,1.76101180899423,-1,1.39475791199948
4,4,79,3.91546485260771,7,11,4,2,0.983595647994662,-1,0.273900270985905
4,4,80,3.15065759637188,7,9,2,2,1.10770857598982,-1,0.511251791001996
4,4,81,3.77469387755102,7,9,2,3,2.52096092299325,-1,0.465102704998571
4,4,82,3.03746031746032,7,8,1,3,0.50969953101594,-1,0.571088194003096
4,4,83,3.9372335600907,7,10,3,2,0.766088438977022,-1,0.409218494984088
4,4,84,3.2,7,9,2,2,0.838361543021165,-1,0.605827864987077
4,4,85,5.84417233560091,7,13,6,1,1.66771845298354,-1,1.00983188400278
4,4,86,5.68308390022676,7,14,7,1,0.998637352982769,-1,0.350265657005366
4,4,87,2.83863945578231,7,8,1,1,1.78326768899569,-1,0.32802454099874
4,4,88,4.33487528344671,7,10,3,1,0.512569176004035,-1,0.189120477007236
4,4,89,3.23628117913832,7,9,2,1,0.524741937988438,-1,0.719452423014445
4,4,90,3.22176870748299,7,8,1,3,1.40174252699944,-1,0.752886507019866
4,4,91,1.07972789115646,7,3,-4,3,2.98733995700604,-1,0.224092410004232
4,4,92,2.51210884353742,7,7,0,3,0.494304844003636,-1,0.252542925998569
4,4,93,1.23646258503401,7,4,-3,3,0.291374901978998,-1,0.0906649090175051
4,4,94,1.78358276643991,7,5,-2,3,0.362011229997734,-1,0.168033323978307
4,4,95,1.63120181405896,7,5,-2,3,0.277117415011162,-1,0.0215934989973903
4,4,96,3.03891156462585,7,8,1,1,0.979317360004643,-1,0.070563774992479
4,4,97,2.15510204081633,7,6,-1,3,0.372958217019914,-1,0.265016502991784
4,4,98,2.72253968253968,7,8,1,3,0.523905532987555,-1,0.305153177003376
4,4,99,3.38140589569161,7,9,2,2,0.383739326993236,-1,0.147321908007143
4,4,100,3.32770975056689,7,8,1,3,0.377269082993735,-1,0.285431391006568
4,4,101,3.16952380952381,7,9,2,2,0.517387728003087,-1,0.129578922991641
4,4,102,1.17696145124717,7,3,-4,3,0.377157354989322,-1,0.210920634999638
4,4,103,0.43827664399093,7,2,-5,3,0.405729491991224,-1,0.304001520999009
4,4,104,1.86630385487528,7,4,-3,3,0.358271071978379,-1,0.154305208008736
4,4,105,1.45560090702948,7,4,-3,3,0.333714245993178,-1,0.116255152999656
4,4,106,4.50321995464853,7,11,4,2,0.457278513989877,-1,0.0168669490085449
4,4,107,4.46113378684807,7,12,5,2,1.01836426500813,-1,0.307462892000331
5,3,1,3.76598639455782,11,11,0,2,0.799453841522336,-1,1.03449616208673
5,3,2,3.52507936507937,11,10,-1,2,1.14808705076575,-1,0.240754164755344
5,3,3,3.23337868480726,11,8,-3,2,0.778121296316385,-1,0.350090127438307
5,3,4,3.17823129251701,11,8,-3,3,0.700127771124244,-1,0.315813984721899
5,3,5,4.88054421768708,11,13,2,2,0.548106143251061,-1,0.488587623462081
5,3,6,3.5221768707483,11,10,-1,2,0.798776691779494,-1,0.439784407615662
5,3,7,3.65569160997732,11,9,-2,3,0.476350931450725,-1,0.0169377960264683
5,3,8,3.53233560090703,11,10,-1,3,0.551716839894652,-1,0.0842769257724285
5,3,9,3.70068027210884,11,9,-2,1,0.524460963904858,-1,0.786209873855114
5,3,10,3.80807256235828,11,10,-1,3,0.422480713576078,-1,0.774287976324558
5,3,11,4.16362811791383,11,11,0,3,0.397550366818905,-1,0.504791663959622
5,3,12,3.89659863945578,11,9,-2,2,0.790941782295704,-1,1.04152539744973
5,3,13,4.32761904761905,11,10,-1,2,0.942367458716035,-1,0.706799898296595
5,3,14,4.10702947845805,11,11,0,1,0.554941775277257,-1,1.50383454933763
5,3,15,4.09396825396825,11,10,-1,2,1.94148952700198,-1,0.72746910341084
5,3,16,5.4465306122449,11,12,1,3,1.18418928422034,-1,1.27589453198016
5,3,17,3.96770975056689,11,11,0,3,0.754715733230114,-1,0.965591883286834
5,3,18,4.26666666666667,11,12,1,1,1.69989803992212,-1,0.904328199103475
5,3,19,3.80226757369615,11,11,0,2,0.749555289745331,-1,1.1374591588974
5,3,20,5.04743764172336,11,14,3,2,0.570735953748226,-1,0.118056850507855
5,3,21,4.73687074829932,11,12,1,2,0.556624012067914,-1,0.272995600476861
5,3,22,4.64108843537415,11,12,1,1,1.53821405954659,-1,0.510225856676698
5,3,23,3.38285714285714,11,9,-2,3,0.957744155079126,-1,1.105558777228
5,3,24,4.67156462585034,11,12,1,2,0.282439531758428,-1,0.320106538012624
5,3,25,4.14331065759637,11,10,-1,1,0.619226235896349,-1,0.244841311126947
5,3,26,4.060589569161,11,11,0,1,0.883594568818808,-1,0.282783783972263
5,3,27,4.98648526077097,11,12,1,2,1.40899912081659,-1,0.257052555680275
5,3,28,3.59183673469388,11,10,-1,3,1.81832675077021,-1,0.347504736855626
5,3,29,3.76743764172336,11,10,-1,2,1.26561166532338,-1,0.15415389277041
5,3,30,4.85297052154195,11,13,2,2,1.53933190926909,-1,1.829236632213
5,3,31,4.09251700680272,11,10,-1,1,1.29359223693609,-1,0.0207963362336159
5,3,32,4.67301587301587,11,11,0,3,1.49649431370199,-1,0.399282893165946
5,3,33,4.8152380952381,11,14,3,3,1.47242572531104,-1,0.0158679559826851
5,3,34,3.67746031746032,11,10,-1,3,0.627691516652703,-1,0.0456678755581379
5,3,35,3.86031746031746,11,11,0,2,0.981349088251591,-1,0.177707809954882
5,3,36,4.32761904761905,11,11,0,3,1.13863199949265,-1,0.0812411420047283
5,3,37,4.7891156462585,11,12,1,1,0.621782375499606,-1,0.0886493325233459
5,3,38,6.16199546485261,11,16,5,1,1.54464131966233,-1,0.157260747626424
5,3,39,4.92553287981859,11,13,2,2,1.58512207865715,-1,0.0592655912041664
5,3,40,4.22312925170068,11,11,0,3,1.1965816244483,-1,0.756601002067327
5,3,41,4.04607709750567,11,10,-1,1,0.947880875319242,-1,0.536720229312778
5,3,42,5.25641723356009,11,13,2,2,0.73533652536571,-1,0.0919706076383591
5,3,43,5.44072562358277,11,13,2,3,0.895638383924961,-1,0.103716632351279
5,3,44,4.52789115646259,11,11,0,3,0.32491060718894,-1,5.39479396864772
5,3,45,4.10702947845805,11,11,0,3,0.585078513249755,-1,0.043054610490799
5,3,46,4.03301587301587,11,11,0,3,0.362817080691457,-1,0.127268435433507
5,3,47,4.15637188208617,11,11,0,2,1.05397716537118,-1,0.230252888053656
5,3,48,3.04471655328798,11,8,-3,2,1.02274248190224,-1,0.121062709018588
5,3,49,3.59038548752834,11,10,-1,1,0.352461852133274,-1,0.0457818396389484
5,3,50,3.66875283446712,11,10,-1,1,0.867800528183579,-1,0.146422328427434
5,3,51,4.49451247165533,11,12,1,3,1.01435388438404,-1,0.329299673438072
5,3,52,3.30448979591837,11,9,-2,2,0.669390227645636,-1,0.253231875598431
5,3,53,4.08235827664399,11,10,-1,2,0.794226936995983,-1,0.044995317235589
5,3,54,4.73251700680272,11,11,0,1,0.742992674931884,-1,0.0161472260951996
5,3,55,3.37850340136054,11,9,-2,2,0.433087544515729,-1,0.0671665295958519
5,3,56,3.5091156462585,11,10,-1,1,0.386563468724489,-1,0.0620207730680704
5,3,57,2.82993197278912,11,8,-3,1,0.641304969787598,-1,0.043223787099123
5,3,58,2.68480725623583,11,7,-4,2,1.5462087970227,-1,0.517675148323178
5,3,59,2.80816326530612,11,8,-3,1,1.21605062484741,-1,0.160679148510098
5,3,60,2.43954648526077,11,7,-4,2,0.473113993182778,-1,0.0656190887093544
5,3,61,4.20571428571429,11,11,0,2,1.13770889677107,-1,0.0383597072213888
5,3,62,5.01551020408163,11,13,2,2,0.627357888966799,-1,0.0684058722108603
5,3,63,4.84281179138322,11,11,0,2,0.58118443377316,-1,0.0221342407166958
5,3,64,3.99963718820862,11,11,0,2,0.882277049124241,-1,0.145837217569351
5,3,65,4.23909297052154,11,11,0,1,0.539152039214969,-1,0.200693564489484
5,3,66,3.71374149659864,11,9,-2,2,0.452089263126254,-1,1.30093482509255
5,3,67,4.69478458049887,11,13,2,3,1.43969120457768,-1,1.13488858379424
5,3,68,3.62666666666667,11,10,-1,2,0.651519309729338,-1,0.0677763484418392
5,3,69,5.27673469387755,11,14,3,2,1.51821044832468,-1,0.0840750150382519
5,3,70,4.03446712018141,11,11,0,1,0.740799224004149,-1,0.026003098115325
5,3,71,3.37995464852608,11,9,-2,2,0.772195793688297,-1,0.23024039529264
5,3,72,4.34213151927438,11,12,1,2,0.360599428415298,-1,0.0163442697376013
5,3,73,3.06648526077098,11,9,-2,2,0.391766391694546,-1,0.0170207805931568
5,3,74,2.86331065759637,11,8,-3,3,0.803027452901006,-1,0.0162642002105713
5,3,75,4.16072562358277,11,12,1,2,0.69524889998138,-1,0.0358946900814772
5,3,76,4.3740589569161,11,11,0,2,0.876224778592587,-1,0.0158607624471188
5,3,77,3.08244897959184,11,9,-2,1,1.62801416032016,-1,0.277457589283586
5,3,78,4.39727891156463,11,11,0,2,0.588542241603136,-1,0.159410919994116
5,3,79,4.24489795918367,11,13,2,1,0.481035949662328,-1,0.0165431704372168
5,3,80,3.49170068027211,11,10,-1,2,0.470262877643108,-1,0.0164351984858513
5,3,81,5.2128798185941,11,12,1,2,0.715700352564454,-1,0.0165776629000902
5,3,82,3.24063492063492,11,8,-3,2,0.874562786892056,-1,0.106750495731831
5,3,83,4.21151927437642,11,10,-1,2,1.13538682647049,-1,0.236759062856436
5,3,84,4.01705215419501,11,10,-1,1,0.939436011016369,-1,0.112492071464658
5,3,85,4.88489795918367,11,13,2,3,2.40752224065363,-1,0.905628086999059
5,3,86,3.87773242630385,11,10,-1,2,1.4223301038146,-1,0.817942891269922
5,3,87,3.41913832199546,11,10,-1,1,0.176518507301807,-1,0.0277152750641108
5,3,88,5.11419501133787,11,12,1,3,1.08323849737644,-1,0.658947451040149
5,3,89,3.91836734693878,11,10,-1,2,0.389165172353387,-1,0.538860132917762
5,3,90,3.70068027210884,11,9,-2,2,0.516681304201484,-1,0.0836871694773436
5,3,91,4.35374149659864,11,10,-1,2,0.3453488368541,-1,0.0621981602162123
5,3,92,5.93414965986395,11,14,3,1,0.978558802977204,-1,0.0380496997386217
5,3,93,4.83700680272109,11,12,1,1,0.661872453987598,-1,0.525215277448297
5,3,94,5.07936507936508,11,11,0,2,1.14882962405682,-1,0.736383812502027
5,3,95,5.97478458049887,11,14,3,2,0.346594808623195,-1,0.0169655010104179
5,3,96,5.8572335600907,11,13,2,1,0.542738860473037,-1,0.260036051273346
5,3,97,4.52643990929705,11,12,1,3,0.959144616499543,-1,0.491543984040618
5,4,1,2.8691156462585,7,7,0,3,1.63701583817601,-1,0.0167463943362236
5,4,2,2.96199546485261,7,8,1,1,0.243161210790277,-1,0.0161210764199495
5,4,3,3.12308390022676,7,7,0,2,0.3756337556988,-1,0.940401935949922
5,4,4,1.83437641723356,7,5,-2,3,0.48421123996377,-1,0.092287078499794
5,4,5,2.88362811791383,7,7,0,3,0.675997711718082,-1,0.307923540472984
5,4,6,3.619410430839,7,10,3,1,0.242664348334074,-1,0.0168044473975897
5,4,7,2.78784580498866,7,7,0,2,1.58566435612738,-1,0.362794818356633
5,4,8,2.98956916099773,7,8,1,1,0.136122105643153,-1,0.0169661231338978
5,4,9,3.00988662131519,7,7,0,3,1.00218310765922,-1,0.155119124799967
5,4,10,2.92861678004535,7,8,1,1,0.836437532678246,-1,0.228171611204743
5,4,11,2.83283446712018,7,7,0,2,0.497658230364323,-1,0.408369801938534
5,4,12,2.30167800453515,7,6,-1,2,1.25738664902747,-1,0.20028374157846
5,4,13,2.77043083900227,7,8,1,3,0.929885052144527,-1,0.791189216077328
5,4,14,2.72399092970522,7,8,1,2,0.712380401790142,-1,0.159038847312331
5,4,15,2.48308390022676,7,7,0,1,0.505751708522439,-1,0.0482865441590548
5,4,16,3.27111111111111,7,8,1,2,0.523959139361978,-1,0.0991057343780994
5,4,17,2.91120181405896,7,7,0,1,0.269317116588354,-1,0.0164298508316278
5,4,18,3.25950113378685,7,8,1,1,0.777266722172499,-1,0.116101086139679
5,4,19,2.89814058956916,7,7,0,3,0.222803924232721,-1,1.35530356690288
5,4,20,2.4540589569161,7,6,-1,3,0.414136635139585,-1,0.280166396871209
5,4,21,2.36553287981859,7,6,-1,2,0.78302956186235,-1,0.0528113339096308
5,4,22,2.31183673469388,7,6,-1,2,0.867326503619552,-1,0.515527265146375
5,4,23,3.10566893424036,7,7,0,2,0.98283520527184,-1,0.642422258853912
5,4,24,3.15791383219955,7,8,1,1,0.318566482514143,-1,0.0621111132204533
5,4,25,2.28281179138322,7,6,-1,2,0.609770195558667,-1,0.109038701280951
5,4,26,3.69052154195011,7,9,2,1,0.597337566316128,-1,0.478842116892338
5,4,27,3.36108843537415,7,8,1,2,0.796267040073872,-1,0.109608288854361
5,4,28,1.36852607709751,7,4,-3,2,1.12182636931539,-1,0.0853953901678324
5,4,29,2.16235827664399,7,6,-1,2,0.649776140227914,-1,0.0275535937398672
5,4,30,3.01424036281179,7,8,1,1,0.487819327041507,-1,0.176052391529083
5,4,31,2.35827664399093,7,8,1,2,0.559102844446898,-1,0.668779995292425
5,4,32,2.46566893424036,7,7,0,3,0.721225434914231,-1,0.18294476158917
5,4,33,2.29006802721088,7,6,-1,3,0.410389563068748,-1,0.016306659206748
5,4,34,2.47292517006803,7,7,0,2,0.315461104735732,-1,0.0969562828540802
5,4,35,2.76607709750567,7,7,0,2,0.436718206852674,-1,0.0161475278437138
5,4,36,3.18113378684807,7,8,1,1,2.12583722174168,-1,0.0754223819822073
5,4,37,2.50340136054422,7,7,0,1,1.23430711217225,-1,0.435013212263584
5,4,38,2.75156462585034,7,7,0,2,0.515044018626213,-1,0.0159501545131207
5,4,39,2.49469387755102,7,6,-1,2,0.491556072607636,-1,0.018443375825882
5,4,40,2.47292517006803,7,6,-1,2,0.362705547362566,-1,0.0409073960036039
5,4,41,2.90975056689342,7,8,1,3,0.745165359228849,-1,0.118983823806047
5,4,42,2.73124716553288,7,8,1,2,0.231508620083332,-1,0.232193913310766
5,4,43,2.08399092970522,7,5,-2,3,2.33718644827604,-1,0.685323076322675
5,4,44,3.07083900226757,7,9,2,3,0.740948859602213,-1,0.0159911848604679
5,4,45,2.4409977324263,7,7,0,3,0.625032151117921,-1,0.881798522546887
5,4,46,2.69351473922903,7,8,1,3,0.551429484039545,-1,0.0438819918781519
5,4,47,2.79219954648526,7,7,0,2,0.700745208188891,-1,0.748110486194491
5,4,48,3.26820861678005,7,8,1,3,0.460490932688117,-1,0.126490222290158
5,4,49,3.02585034013605,7,7,0,3,1.00259711034596,-1,0.0295708514750004
5,4,50,2.63256235827664,7,7,0,2,0.426110994070768,-1,0.100248284637928
5,4,51,2.33795918367347,7,6,-1,2,0.698570434004068,-1,0.176731834188104
5,4,52,2.64852607709751,7,7,0,2,1.02643046714365,-1,0.0370081663131714
5,4,53,3.18548752834467,7,8,1,3,0.348377605900168,-1,0.136661361902952
5,4,54,2.61514739229025,7,8,1,3,0.542376887053251,-1,0.332233676686883
5,4,55,2.46857142857143,7,7,0,1,0.433266287669539,-1,0.137704776600003
5,4,56,2.26829931972789,7,7,0,2,1.42295411974192,-1,0.127614341676235
5,4,57,2.85750566893424,7,7,0,2,0.363192528486252,-1,0.119304738938808
5,4,58,2.56580498866213,7,6,-1,3,0.401653001084924,-1,0.196877779439092
5,4,59,2.42213151927438,7,7,0,3,0.417084043845534,-1,0.0196637399494648
5,4,60,1.53687074829932,7,4,-3,3,0.354737594723701,-1,0.278888545930386
5,4,61,2.00562358276644,7,6,-1,2,0.388862362131476,-1,1.2718926332891
5,4,62,2.98666666666667,7,8,1,2,0.323609732091427,-1,0.0254734195768833
5,4,63,1.60507936507937,7,4,-3,2,1.0574075691402,-1,0.250325635075569
5,4,64,2.59773242630386,7,6,-1,2,0.733338620513678,-1,0.194843772798777
5,4,65,2.04045351473923,7,5,-2,3,1.36553872004151,-1,0.0159907937049866
5,4,66,1.88662131519274,7,6,-1,3,0.800717087462544,-1,0.0168031752109528
5,4,67,2.37133786848073,7,6,-1,3,1.34934291988611,-1,0.016031650826335
5,4,68,2.90829931972789,7,8,1,2,0.399383379146457,-1,0.0353832524269819
5,4,69,2.2378231292517,7,6,-1,2,0.546275362372398,-1,0.128073101863265
5,4,70,2.62095238095238,7,7,0,3,0.933401511982083,-1,0.354679394513369
5,4,71,2.60643990929705,7,6,-1,1,0.755672616884112,-1,0.536652538925409
5,4,72,2.8734693877551,7,7,0,2,1.81431455351412,-1,0.142632115632296
5,4,73,2.92426303854875,7,7,0,3,0.684835407882929,-1,0.540603764355183
5,4,74,3.28707482993197,7,8,1,1,0.436051743105054,-1,0.0851134359836578
5,4,75,2.93297052154195,7,7,0,2,1.27376271598041,-1,0.415608810260892
5,4,76,2.47873015873016,7,7,0,2,0.40032496675849,-1,0.124306434765458
5,4,77,2.27700680272109,7,6,-1,3,0.686478860676289,-1,0.0596278682351112
5,4,78,2.45986394557823,7,7,0,2,0.820493053644896,-1,0.183019774034619
5,4,79,3.33496598639456,7,8,1,1,0.545908868312836,-1,0.0239996910095215
5,4,80,2.67609977324263,7,8,1,2,0.929542047902942,-1,0.0786805190145969
5,4,81,0.902675736961451,7,3,-4,1,0.873443361371756,-1,0.0492682624608278
5,4,82,2.38875283446712,7,6,-1,3,0.290917219594121,-1,1.65246969088912
5,4,83,2.63401360544218,7,7,0,3,0.772936722263694,-1,0.264065427705646
5,4,84,2.76172335600907,7,6,-1,2,0.314289001747966,-1,0.433917041867971
5,4,85,2.38149659863946,7,7,0,3,1.19185858406126,-1,0.258400838822126
5,4,86,2.75301587301587,7,7,0,1,0.37031252682209,-1,0.0300036985427141
5,4,87,2.76607709750567,7,6,-1,2,0.819887042045593,-1,0.173841556534171
5,4,88,3.24934240362812,7,8,1,1,0.953896027058363,-1,0.0474101919680834
5,4,89,3.51056689342404,7,9,2,1,0.333345245569944,-1,0.0429613348096609
5,4,90,2.4453514739229,7,7,0,3,0.995896499603987,-1,0.42268568277359
5,4,91,2.17832199546485,7,5,-2,2,0.888889951631427,-1,0.064766637980938
5,4,92,3.08244897959184,7,8,1,1,1.44890966266394,-1,0.872897615656257
5,4,93,2.05786848072562,7,6,-1,2,1.08576893061399,-1,0.05131671205163
5,4,94,2.73850340136054,7,8,1,2,0.763350399211049,-1,0.0567352008074522
5,4,95,2.20009070294785,7,5,-2,3,0.984177021309733,-1,0.355817068368196
5,4,96,2.94893424036281,7,7,0,2,0.707914585247636,-1,0.28289770334959
5,4,97,2.64997732426304,7,6,-1,2,0.620963368564844,-1,0.142476094886661
5,4,98,2.4584126984127,7,6,-1,3,0.873921282589436,-1,0.0161384455859661
5,4,99,2.14784580498866,7,6,-1,2,0.267046451568604,-1,0.0265789795666933
5,4,100,3.21886621315193,7,9,2,3,0.292848108336329,-1,1.70167546905577
5,4,101,2.49759637188209,7,7,0,3,0.56396484747529,-1,0.529659988358617
5,4,102,2.37133786848073,7,7,0,2,0.620010672137141,-1,0.141312934458256
5,4,103,1.94031746031746,7,6,-1,2,0.672541569918394,-1,0.0170435477048159
5,4,104,2.56725623582766,7,7,0,2,1.72768771834671,-1,0.260609183460474
5,4,105,2.73124716553288,7,7,0,2,0.78858202137053,-1,0.575688105076551
5,4,106,3.07809523809524,7,7,0,3,0.725589660927653,-1,0.636841543018818
5,4,107,3.02439909297052,7,8,1,1,0.278327241539955,-1,0.054316196590662
5,4,108,2.09560090702948,7,6,-1,2,0.505894735455513,-1,0.0327622145414352
5,4,109,1.51219954648526,7,5,-2,3,0.218850433826447,-1,0.0209203120321035
5,4,110,2.6790022675737,7,6,-1,2,0.33920331299305,-1,0.0166727211326361
5,4,111,2.77913832199547,7,7,0,3,0.198826164007187,-1,0.688452031463385
5,4,112,2.6572335600907,7,6,-1,2,0.521769879385829,-1,1.03771333768964
5,4,113,2.53097505668934,7,7,0,3,1.2001363132149,-1,0.10523640550673
5,4,114,2.84009070294785,7,8,1,3,0.388075020164251,-1,0.478006530553102
5,4,115,2.77913832199547,7,7,0,2,0.347776724025607,-1,0.0900245830416679
5,4,116,3.29433106575964,7,8,1,1,0.182039465755224,-1,0.0169904846698046
5,4,117,3.05632653061224,7,8,1,1,0.194684701040387,-1,0.016281520947814
5,4,118,2.11301587301587,7,7,0,1,0.636431423947215,-1,0.159008502960205
5,4,119,2.42793650793651,7,6,-1,2,0.967709919437766,-1,0.0163549911230803
5,4,120,2.80961451247166,7,7,0,3,1.16479642316699,-1,0.0952067673206329
5,4,121,2.73995464852608,7,7,0,3,0.394768327474594,-1,0.870199227705598
5,4,122,2.88943310657596,7,8,1,3,0.347698818892241,-1,0.0159453805536032
5,4,123,2.19718820861678,7,6,-1,2,0.257558872923255,-1,0.0832746047526598
5,4,124,2.2508843537415,7,6,-1,3,0.771505370736122,-1,0.0160792768001556
5,4,125,2.71673469387755,7,7,0,2,1.27496488019824,-1,0.016488429158926
5,4,126,2.361179138322,7,6,-1,1,0.289187528192997,-1,0.0647224262356758
5,4,127,2.7718820861678,7,7,0,2,0.830601878464222,-1,0.320312028750777
6,3,1,2.95764172335601,7,7,0,2,1.47765319608152,-1,0.308759167790413
6,3,2,2.6615873015873,7,7,0,2,1.09487842768431,-1,0.117135876789689
6,3,3,3.01133786848073,7,8,1,1,1.59114682301879,-1,0.1058852635324
6,3,4,2.93587301587302,7,7,0,2,0.803525177761912,-1,0.174185225740075
6,3,5,2.87492063492064,7,7,0,2,0.860754588618875,-1,0.123125249519944
6,3,6,2.57160997732426,7,7,0,2,0.658789044246078,-1,0.0671306122094393
6,3,7,2.52517006802721,7,7,0,2,0.444043781608343,-1,0.0849240124225616
6,3,8,2.2378231292517,7,6,-1,3,1.27905859053135,-1,0.118386324495077
6,3,9,2.57451247165533,7,7,0,2,1.5247307587415,-1,1.04115206189454
6,3,10,2.71818594104308,7,7,0,2,0.616805959492922,-1,0.0804180335253477
6,3,11,2.36698412698413,7,7,0,2,0.543823624029756,-1,0.0159502532333136
6,3,12,2.61369614512472,7,8,1,1,0.909863198176026,-1,0.0164468754082918
6,3,13,2.42213151927438,7,7,0,2,0.998560484498739,-1,0.0158815756440163
6,3,14,2.7762358276644,7,7,0,2,0.609566578641534,-1,0.0164744313806295
6,3,15,2.75591836734694,7,7,0,2,0.486044030636549,-1,0.0159538239240646
6,3,16,2.68770975056689,7,8,1,1,2.43790998309851,-1,2.62096240930259
6,3,17,2.758820861678,7,8,1,1,1.0605106446892,-1,0.299331355839968
6,3,18,2.47873015873016,7,7,0,2,0.543930400162935,-1,0.045420104637742
6,3,19,2.86040816326531,7,7,0,3,1.50224842503667,-1,0.0193331427872181
6,3,20,2.81832199546485,7,8,1,1,0.811058364808559,-1,0.0162386689335108
6,3,21,2.70077097505669,7,7,0,3,1.03570676967502,-1,0.0168848764151335
6,3,22,2.6790022675737,7,7,0,2,3.2239227630198,-1,1.00788589566946
6,3,23,2.89233560090703,7,7,0,3,0.727694381028414,-1,0.214913126081228
6,3,24,2.92281179138322,7,7,0,3,1.06092829816043,-1,0.116990756243467
6,3,25,2.49614512471655,7,8,1,1,0.715719720348716,-1,0.0168536193668842
6,3,26,2.95619047619048,7,7,0,3,0.677720526233315,-1,0.0221178475767374
6,3,27,2.64562358276644,7,8,1,2,1.63561529666185,-1,0.514711806550622
6,3,28,2.78204081632653,7,7,0,2,0.165407449007034,-1,1.24180500581861
6,3,29,2.54403628117914,7,7,0,2,0.818956192582846,-1,0.668126003816724
6,3,30,3.07519274376417,7,8,1,1,0.992025904357433,-1,0.0425926577299833
6,3,31,2.91990929705215,7,8,1,1,0.732186945155263,-1,0.0167753882706165
6,3,32,2.96634920634921,7,7,0,3,0.996056172996759,-1,0.0382984038442373
6,3,33,2.73705215419501,7,7,0,2,0.552381779998541,-1,0.230674963444471
6,3,34,2.98086167800454,7,8,1,1,0.595581252127886,-1,0.0169318914413452
6,3,35,2.28861678004535,7,8,1,1,0.868309836834669,-1,0.0170069709420204
6,3,36,2.66448979591837,7,7,0,2,0.659383937716484,-1,0.0169404689222574
6,3,37,2.82267573696145,7,7,0,1,2.09772723726928,-1,0.215259321033955
6,3,38,2.51936507936508,7,8,1,2,2.23764272034168,-1,0.323625089600682
6,3,39,2.44825396825397,7,7,0,2,0.711745232343674,-1,0.0311013218015432
6,3,40,2.46421768707483,7,7,0,3,0.910466941073537,-1,0.0166182611137629
6,3,41,2.94458049886621,7,7,0,2,0.703685829415917,-1,0.0165109541267157
6,3,42,2.92426303854875,7,7,0,3,0.962683916091919,-1,0.11949941329658
6,3,43,2.58757369614512,7,7,0,2,0.64912030659616,-1,0.0170173123478889
6,3,44,2.58757369614512,7,7,0,1,0.872799200937152,-1,0.0170245841145515
6,3,45,2.97070294784581,7,8,1,1,0.982448101043701,-1,0.0162110552191734
6,3,46,2.59337868480726,7,7,0,1,0.712868670001626,-1,0.0162850115448236
6,3,47,2.85315192743764,7,8,1,2,1.06824870221317,-1,0.0167353749275208
6,3,48,3.0940589569161,7,7,0,1,3.95905049331486,-1,0.397974470630288
6,3,49,2.69641723356009,7,7,0,2,0.804608691483736,-1,0.0380801409482956
6,3,50,2.54839002267574,7,7,0,2,0.732654610648751,-1,0.730576068162918
6,3,51,2.61079365079365,7,8,1,2,0.964377151802182,-1,0.0224337354302406
6,3,52,3.08244897959184,7,7,0,3,2.2313739079982,-1,0.0170381758362055
6,3,53,2.77043083900227,7,7,0,2,0.829938728362322,-1,0.0169515609741211
6,3,54,3.08390022675737,7,7,0,3,0.752064026892185,-1,0.036545867100358
6,3,55,2.54548752834467,7,8,1,1,0.743113204836845,-1,0.018848480656743
6,3,56,2.80235827664399,7,7,0,2,0.569931944832206,-1,0.0167629532516003
6,3,57,2.64562358276644,7,7,0,2,0.567405277863145,-1,0.016152773052454
6,3,58,2.80816326530612,7,8,1,1,1.08224698342383,-1,0.0166616626083851
6,3,59,2.82122448979592,7,7,0,2,0.995618069544435,-1,0.0170066859573126
6,3,60,2.59628117913832,7,7,0,2,0.843691309913993,-1,0.0163408480584621
6,3,61,2.83573696145125,7,7,0,1,1.18430594727397,-1,0.0167317651212215
6,3,62,3.18548752834467,7,8,1,1,1.99229429289699,-1,0.498825998976827
6,3,63,2.6746485260771,7,7,0,2,0.549023773521185,-1,0.0168797597289085
6,3,64,2.89233560090703,7,7,0,3,1.37904591672122,-1,0.0159752331674099
6,3,65,2.52081632653061,7,7,0,2,1.48612565733492,-1,2.57181766070426
6,3,66,2.70947845804989,7,7,0,2,1.88118616864085,-1,0.016236899420619
6,3,67,2.83428571428571,7,7,0,2,0.491974100470543,-1,0.0167956743389368
6,3,68,2.40181405895692,7,7,0,1,1.55561146885157,-1,0.015987878665328
6,3,69,2.60934240362812,7,7,0,2,0.850464973598719,-1,0.034768108278513
6,3,70,2.56145124716553,7,7,0,1,1.6313040908426,-1,0.0170329660177231
6,3,71,2.81541950113379,7,8,1,2,0.532164756208658,-1,1.24848246388137
6,3,72,2.79219954648526,7,7,0,3,1.08422180265188,-1,0.0164867509156466
6,3,73,3.0940589569161,7,7,0,3,0.692270761355758,-1,0.0161971133202314
6,3,74,2.94167800453515,7,8,1,1,1.10765559971333,-1,0.0161011517047882
6,3,75,3.16517006802721,7,7,0,3,0.85484360344708,-1,0.108985383063555
6,3,76,2.65433106575964,7,8,1,1,0.993224553763866,-1,0.0164367184042931
6,3,77,2.68480725623583,7,7,0,2,0.570007380098104,-1,0.663177387788892
6,3,78,2.87056689342404,7,8,1,1,0.810405621305108,-1,0.0167704056948423
6,3,79,3.09986394557823,7,7,0,3,0.740546565502882,-1,0.0652270875871181
6,3,80,3.16517006802721,7,7,0,3,0.919144112616777,-1,0.0163679346442223
6,3,81,3.03600907029478,7,7,0,3,0.704499520361423,-1,0.0169872753322124
6,3,82,2.65433106575964,7,7,0,2,0.700878908857703,-1,0.0161539372056723
6,3,83,2.58902494331066,7,7,0,3,0.790630234405398,-1,0.0159281361848116
6,3,84,2.93151927437642,7,8,1,1,0.668652283027768,-1,0.0168983619660139
6,3,85,2.77333333333333,7,7,0,2,1.04387650825083,-1,0.0159620810300112
6,3,86,3.30303854875283,7,8,1,1,0.754931947216392,-1,0.0159969925880432
6,3,87,2.79365079365079,7,7,0,3,1.05408781208098,-1,0.0169806815683842
6,3,88,2.79655328798186,7,7,0,2,0.463532436639071,-1,0.0161413736641407
6,3,89,2.62675736961451,7,7,0,3,0.767324252054095,-1,0.0168109629303217
6,3,90,2.13043083900227,7,7,0,1,1.11139178462327,-1,0.0162223037332296
6,3,91,2.62675736961451,7,8,1,1,0.724741023033857,-1,0.0168284382671118
6,3,92,2.92426303854875,7,8,1,1,0.725606717169285,-1,0.0165888722985983
6,3,93,2.57596371882086,7,7,0,1,0.877879170700908,-1,1.71769842877984
6,3,94,2.82702947845805,7,7,0,2,2.22025522403419,-1,1.13260563090444
6,3,95,2.80961451247166,7,7,0,1,0.772723644971848,-1,1.37719574384391
6,3,96,2.7762358276644,7,7,0,2,0.818903619423509,-1,0.0159762836992741
6,3,97,2.25814058956916,7,6,-1,1,1.16034447215497,-1,0.156633095815778
6,3,98,2.86040816326531,7,8,1,1,1.03834797628224,-1,0.0159925501793623
6,3,99,3.25369614512472,7,7,0,2,1.37114713340998,-1,0.046596959233284
6,3,100,3.01424036281179,7,8,1,1,0.738419180735946,-1,0.0169436410069466
6,3,101,2.57596371882086,7,7,0,1,0.760027177631855,-1,0.0159232039004564
6,3,102,3.30013605442177,7,8,1,1,0.533170651644468,-1,0.0347145665436983
6,3,103,3.12308390022676,7,8,1,2,1.79815302044153,-1,0.0171067323535681
6,3,104,2.42503401360544,7,8,1,1,0.653151364997029,-1,0.0169911850243807
6,3,105,2.39310657596372,7,7,0,1,0.63713432662189,-1,0.0165864732116461
6,3,106,2.60643990929705,7,7,0,2,0.8713049441576,-1,0.0165280848741531
6,3,107,3.03310657596372,7,7,0,2,0.715353569015861,-1,0.0163874085992575
6,3,108,2.84589569160998,7,7,0,2,0.785863772034645,-1,0.0169215202331543
6,3,109,2.70077097505669,7,7,0,3,1.0222749337554,-1,0.0161838103085756
6,3,110,2.68045351473923,7,7,0,3,0.827802723273635,-1,0.0166899561882019
6,3,111,2.96054421768707,7,7,0,2,0.732472853735089,-1,0.0165426284074783
6,3,112,2.81687074829932,7,7,0,3,0.520872754976153,-1,0.0158677473664284
6,3,113,2.79800453514739,7,7,0,1,1.54061833769083,-1,0.016877019777894
6,3,114,2.4671201814059,7,7,0,3,0.600752098485827,-1,0.0168982613831758
6,3,115,2.66303854875283,7,7,0,2,0.622284036129713,-1,0.0170059688389301
6,3,116,3.01424036281179,7,7,0,3,0.642558479681611,-1,0.016044095158577
6,3,117,3.01424036281179,7,7,0,2,0.486618174239993,-1,0.0160374436527491
6,3,118,2.9968253968254,7,8,1,1,1.72041399776936,-1,0.0169354304671288
6,3,119,2.87056689342404,7,7,0,2,1.03857161849737,-1,0.015912301838398
6,4,1,4.23038548752834,11,11,0,2,0.646426267921925,-1,0.0165436323732138
6,4,2,4.24344671201814,11,11,0,3,0.960562316700816,-1,0.0160881578922272
6,4,3,3.53959183673469,11,10,-1,1,1.08181518502533,-1,0.112810561433434
6,4,4,3.86031746031746,11,10,-1,2,0.35981759801507,-1,0.0946763269603252
6,4,5,4.35229024943311,11,11,0,2,0.551066868007183,-1,0.0588429644703865
6,4,6,4.21297052154195,11,10,-1,2,0.328076548874378,-1,0.0159172154963017
6,4,7,3.46702947845805,11,10,-1,2,0.35967836342752,-1,0.0170362964272499
6,4,8,3.9590022675737,11,10,-1,2,0.360151363536716,-1,0.0167452245950699
6,4,9,4.23764172335601,11,11,0,2,0.528718415647745,-1,0.0161791648715734
6,4,10,4.2507029478458,11,11,0,2,0.801004223525524,-1,0.0169710200279951
6,4,11,3.82548752834467,11,11,0,1,0.62637759745121,-1,0.0169907547533512
6,4,12,3.59038548752834,11,10,-1,2,0.799013756215572,-1,0.0322464425116777
6,4,13,0.0058049886621315,11,1,-10,1,2.30871560610831,-1,0.016835018992424
6,4,14,4.16943310657596,11,10,-1,2,0.496813893318176,-1,0.0160320661962032
6,4,15,4.41179138321995,11,11,0,2,0.502108925953507,-1,0.0160048566758633
6,4,16,3.9415873015873,11,11,0,1,0.664980467408895,-1,0.0503876730799675
6,4,17,4.2768253968254,11,10,-1,2,0.627495100721717,-1,0.213074875995517
6,4,18,3.62086167800454,11,10,-1,2,0.726580154150724,-1,0.379593729972839
6,4,19,4.09251700680272,11,11,0,2,0.464585963636637,-1,0.0163358636200428
6,4,20,4.50467120181406,11,11,0,2,0.661921095103025,-1,0.0164474491029978
6,4,21,3.86757369614512,11,10,-1,2,0.642870109528303,-1,0.0928279254585505
6,4,22,4.18975056689342,11,11,0,2,0.682232715189457,-1,0.0170136243104935
6,4,23,4.23619047619048,11,11,0,2,0.83397020585835,-1,0.0159769877791405
6,4,24,4.61931972789116,11,11,0,2,0.597312787547708,-1,0.0159806832671165
6,4,25,4.23038548752834,11,10,-1,2,0.794234791770577,-1,0.0162926353514194
6,4,26,4.30004535147392,11,11,0,2,0.453593295067549,-1,0.0165497176349163
6,4,27,4.65124716553288,11,11,0,2,0.436733199283481,-1,0.0166018232703209
6,4,28,4.32036281179138,11,11,0,2,0.443152172490954,-1,0.0161354206502438
6,4,29,4.73687074829932,11,11,0,2,0.504913587123156,-1,0.0164982955902815
6,4,30,4.51628117913832,11,11,0,2,0.668170334771276,-1,0.141318636015058
6,4,31,4.47274376417234,11,11,0,2,0.890021368861198,-1,0.504548896104097
6,4,32,4.83555555555556,11,12,1,1,1.38939452543855,-1,0.0159460846334696
6,4,33,4.03156462585034,11,12,1,2,1.0737894680351,-1,0.0161431711167097
6,4,34,4.31455782312925,11,11,0,2,0.49964445643127,-1,0.0158651992678642
6,4,35,4.03736961451247,11,11,0,2,0.344693429768085,-1,0.0164540596306324
6,4,36,4.46403628117914,11,11,0,2,0.471642009913921,-1,0.0159847494214773
6,4,37,4.32036281179138,11,11,0,2,0.357041476294398,-1,0.0169509798288345
6,4,38,4.49160997732426,11,11,0,2,0.380122976377606,-1,0.0159893911331892
6,4,39,4.1665306122449,11,11,0,2,0.375840010121465,-1,0.0159738697111607
6,4,40,4.16362811791383,11,11,0,1,1.4003482721746,-1,0.0166937839239836
6,4,41,4.53224489795918,11,11,0,1,1.06208330392838,-1,0.0539833307266235
6,4,42,4.4843537414966,11,11,0,2,0.980774413794279,-1,0.0169661603868008
6,4,43,3.90095238095238,11,11,0,2,1.3510438837111,-1,0.0169918816536665
6,4,44,4.11718820861678,11,11,0,1,1.81026805378497,-1,0.0165349040180445
6,4,45,4.22167800453515,11,11,0,2,0.457440989091992,-1,0.0166977923363447
6,4,46,4.0431746031746,11,11,0,2,0.414912156760693,-1,0.0164246987551451
6,4,47,4.51773242630385,11,11,0,2,0.479325966909528,-1,0.0167260095477104
6,4,48,4.57433106575964,11,12,1,2,1.30630511417985,-1,0.304256495088339
6,4,49,4.78185941043084,11,11,0,2,0.429071249440312,-1,1.09626032225788
6,4,50,3.64408163265306,11,10,-1,2,0.443057887256145,-1,0.0160661768168211
6,4,51,4.36825396825397,11,11,0,2,0.6165556833148,-1,0.0163153167814016
6,4,52,4.14331065759637,11,11,0,3,0.808701388537884,-1,0.0166680067777634
6,4,53,4.41469387755102,11,11,0,2,0.349431063979864,-1,0.0163485705852509
6,4,54,4.64544217687075,11,12,1,1,1.67680965736508,-1,0.0162112880498171
6,4,55,4.29278911564626,11,11,0,1,0.953259821981192,-1,0.0159570034593344
6,4,56,4.40598639455782,11,11,0,2,0.721759075298905,-1,0.0159555431455374
6,4,57,4.83990929705215,11,11,0,3,0.773381186649203,-1,0.0160184521228075
6,4,58,3.07809523809524,11,10,-1,2,0.628377320244908,-1,0.0158467181026936
6,4,59,4.04462585034014,11,10,-1,2,0.480394080281258,-1,0.016863452270627
6,4,60,4.64834467120181,11,11,0,2,0.606687979772687,-1,0.0162373371422291
6,4,61,3.82548752834467,11,11,0,1,0.78647081181407,-1,0.0166360698640347
6,4,62,4.54385487528345,11,11,0,2,0.852457547560334,-1,0.0159977320581675
6,4,63,4.42340136054422,11,11,0,2,0.0154621973633766,-1,1.21549748256803
6,4,64,4.53079365079365,11,11,0,2,0.510945392772555,-1,0.016160948202014
6,4,65,4.63963718820862,11,11,0,3,0.414476120844483,-1,0.768965633586049
6,4,66,4.60916099773243,11,12,1,3,0.126697471365333,-1,1.89476406015456
6,4,67,4.56562358276644,11,11,0,1,0.996080150827765,-1,0.0167939476668835
6,4,68,4.50321995464853,11,11,0,2,3.69004512578249,-1,0.204319441691041
6,4,69,4.25360544217687,11,12,1,2,0.0156485997140408,-1,1.36766638047993
6,4,70,4.71655328798186,11,11,0,3,0.669974388554692,-1,0.076747877523303
6,4,71,4.52643990929705,11,11,0,3,1.0819930639118,-1,0.0426141545176506
6,4,72,4.07510204081633,11,10,-1,2,0.153542129322886,-1,1.71174768917263
6,4,73,4.54095238095238,11,11,0,3,1.46120207384229,-1,0.123519318178296
6,4,74,4.30730158730159,11,11,0,3,0.580553829669952,-1,0.015952005982399
6,4,75,3.49750566893424,11,10,-1,1,1.62534043937922,-1,1.06738862395287
6,4,76,3.96770975056689,11,11,0,3,0.545282516628504,-1,0.0716755744069815
6,4,77,3.96770975056689,11,11,0,3,0.595979303121567,-1,0.0160556305199862
6,4,78,5.0053514739229,11,12,1,1,2.02880322560668,-1,0.437299709767103
6,4,79,4.13895691609977,11,11,0,1,1.67088710330427,-1,0.0162948276847601
6,4,80,5.03727891156463,11,11,0,3,0.56224294193089,-1,0.0169226732105017
6,4,81,4.07365079365079,11,11,0,3,0.586456628516316,-1,0.0160151869058609
6,4,82,4.66285714285714,11,11,0,3,0.506201298907399,-1,0.0162026528269053
6,4,83,3.69342403628118,11,11,0,3,0.745116902515292,-1,0.0164170432835817
6,4,84,4.57578231292517,11,11,0,3,0.828477263450623,-1,0.0163955967873335
6,4,85,4.46113378684807,11,11,0,2,0.688714232295752,-1,0.0166386067867279
6,4,86,4.83990929705215,11,11,0,3,0.639237564057112,-1,0.0245668403804302
6,4,87,4.60045351473923,11,11,0,2,1.70770683139563,-1,0.0320911630988121
6,4,88,4.5859410430839,11,12,1,1,1.16297478415072,-1,0.0165938790887594
6,4,89,4.33632653061224,11,11,0,2,1.32524817436934,-1,0.0159236695617437
6,4,90,4.49596371882086,11,11,0,3,1.06988568790257,-1,0.0159789305180311
6,4,91,3.55555555555556,11,11,0,2,1.65868478640914,-1,0.377583436667919
6,4,92,4.57433106575964,11,11,0,2,1.3856938444078,-1,0.0159258916974068
6,4,93,3.69052154195011,11,10,-1,1,0.965314650908113,-1,0.104549150913954
6,4,94,4.7049433106576,11,11,0,3,0.736420122906566,-1,0.062733905389905
6,4,95,4.83845804988662,11,11,0,2,0.902474923059344,-1,0.0170434638857841
6,4,96,4.33632653061224,11,11,0,3,1.11558568291366,-1,0.0165966395288706
6,4,97,4.17668934240363,11,11,0,3,0.679923521354795,-1,0.0159736070781946
6,4,98,4.54820861678005,11,11,0,3,0.657310811802745,-1,0.0167609173804522
6,4,99,4.32761904761905,11,12,1,1,1.60733729973435,-1,0.0162095278501511
6,4,100,4.29278911564626,11,11,0,2,0.977919800207019,-1,0.0169202871620655
7,3,1,2.15945578231293,7,6,-1,2,0.21711415599566,-1,0.082561331015313
7,3,2,2.29151927437642,7,6,-1,2,0.190237696981058,-1,0.0169602640089579
7,3,3,2.12027210884354,7,7,0,2,0.286436416994547,-1,0.0376176009885967
7,3,4,3.04471655328798,7,8,1,2,1.02997348899953,-1,0.118655566999223
7,3,5,3.27546485260771,7,8,1,2,0.37798959101201,-1,0.0943624280043878
7,3,6,3.56861678004535,7,10,3,2,0.28582879001624,-1,0.0171154420240782
7,3,7,2.74430839002268,7,9,2,2,0.355706314992858,-1,0.0326652870280668
7,3,8,3.8269387755102,7,10,3,2,0.291821513994364,-1,0.0353865679935552
7,3,9,2.68480725623583,7,8,1,2,0.257980016991496,-1,0.0175563850207254
7,3,10,3.24934240362812,7,9,2,2,0.199011644988786,-1,0.0171140060119797
7,3,11,5.05324263038549,7,12,5,2,0.229309580987319,-1,0.0310554959869478
7,3,12,4.20136054421769,7,11,4,2,0.228014958993299,-1,0.0610742199933156
7,3,13,3.64408163265306,7,9,2,2,0.211808601015946,-1,0.0166236959921662
7,3,14,2.88507936507937,7,7,0,2,0.140062609018059,-1,0.0168618040042929
7,3,15,4.13895691609977,7,9,2,2,0.182037224003579,-1,0.0646299259969965
7,3,16,4.17378684807256,7,10,3,2,0.254599734005751,-1,0.136059420008678
7,3,17,2.63981859410431,7,7,0,2,0.204882621997967,-1,0.0173792930145282
7,3,18,5.03873015873016,7,13,6,2,0.299094109999714,-1,0.129862685978878
7,3,19,4.74267573696145,7,13,6,2,0.408179213001858,-1,0.130407462012954
7,3,20,2.97795918367347,7,8,1,2,0.39721501400345,-1,0.303738241986139
7,3,21,3.61360544217687,7,10,3,2,0.917485898011364,-1,0.114037873980124
7,3,22,2.58176870748299,7,8,1,2,0.3199603370158,-1,0.109200745006092
7,3,23,2.40036281179138,7,7,0,2,0.236932078987593,-1,0.126687558979029
7,3,24,3.52798185941043,7,9,2,2,0.139166036999086,-1,0.105668184987735
7,3,25,2.59628117913832,7,7,0,2,0.406413855991559,-1,0.0172438170120586
7,3,26,2.19718820861678,7,6,-1,2,0.218127016007202,-1,0.0669296830019448
7,3,27,2.27700680272109,7,6,-1,2,0.183062326017534,-1,0.0172668589802925
7,3,28,2.4497052154195,7,6,-1,2,0.202883392979857,-1,0.029935108992504
7,3,29,2.44390022675737,7,6,-1,2,0.184814959007781,-1,0.059434113005409
7,3,30,3.15646258503401,7,8,1,2,0.155924459017115,-1,0.0965338929963764
7,3,31,2.22621315192744,7,6,-1,2,0.254733621986816,-1,0.112068552989513
7,3,32,2.59482993197279,7,6,-1,2,0.245138794009108,-1,0.310668871999951
7,3,33,3.02149659863946,7,7,0,2,0.5036905699817,-1,0.181434714002535
7,3,34,2.31764172335601,7,7,0,2,0.361678447021404,-1,0.166358696005773
7,3,35,3.21015873015873,7,8,1,2,0.241928480012575,-1,0.0929065480013378
7,3,36,3.89224489795918,7,9,2,2,0.193980543001089,-1,0.0168046540056821
7,3,37,3.74566893424036,7,8,1,2,0.192118951992597,-1,0.0673763229860924
7,3,38,3.03310657596372,7,8,1,2,0.207335739018163,-1,0.0407514980179258
7,3,39,3.16662131519274,7,8,1,2,0.138130967010511,-1,0.0165986240026541
7,3,40,3.36399092970522,7,9,2,2,0.178072156995768,-1,0.0166206589783542
7,3,41,3.65569160997732,7,10,3,2,0.159747097000945,-1,0.0174950529763009
7,3,42,2.88943310657596,7,7,0,2,0.153584662999492,-1,0.016662340000039
7,3,43,2.83283446712018,7,8,1,2,0.434230530983768,-1,0.0567756569944322
7,3,44,3.5352380952381,7,9,2,2,0.129910567018669,-1,0.0170142060087528
7,3,45,2.92861678004535,7,7,0,2,0.151571419992251,-1,0.0174770620069467
7,3,46,2.74575963718821,7,8,1,2,0.152735859999666,-1,0.0173837700276636
7,3,47,2.07528344671202,7,6,-1,2,0.101726233988302,-1,0.0166533209849149
7,3,48,2.59918367346939,7,7,0,2,0.112485766992904,-1,0.0169785539910663
7,3,49,3.70503401360544,7,10,3,2,0.0882083819888067,-1,0.0170409929996822
7,3,50,2.93877551020408,7,7,0,2,0.426614504976897,-1,0.0165272929880302
7,3,51,3.23482993197279,7,8,1,2,0.0667341130028944,-1,0.0166234959906433
7,3,52,2.76462585034014,7,7,0,2,0.149985032010591,-1,0.0175709390023258
7,3,53,3.11292517006803,7,9,2,2,0.165431239001919,-1,0.0174095539841801
7,3,54,3.67600907029478,7,10,3,2,0.169328710995615,-1,0.0175081680063158
7,3,55,3.66149659863946,7,8,1,2,0.149710514000617,-1,0.0174891960050445
7,3,56,3.19274376417234,7,8,1,2,0.155717777000973,-1,0.0175172470044345
7,3,57,2.36698412698413,7,7,0,2,0.108165162993828,-1,0.0169152820017189
7,3,58,3.87337868480726,7,10,3,2,0.195175874978304,-1,0.0167696329881437
7,3,59,3.23628117913832,7,8,1,2,0.154372477001743,-1,0.0168897739786189
7,3,60,3.37269841269841,7,10,3,2,0.126063175004674,-1,0.0171787630242761
7,3,61,3.8269387755102,7,10,3,2,0.122148359019775,-1,0.0167307629890274
7,3,62,4.20426303854875,7,10,3,2,0.0830199379997794,-1,0.0173609539924655
7,3,63,4.77605442176871,7,12,5,2,0.0159207920078188,-1,2.44796134400531
7,3,64,3.90530612244898,7,9,2,2,0.120451082999352,-1,0.016726743982872
7,3,65,2.92281179138322,7,8,1,2,0.546339210006408,-1,0.22292660799576
7,3,66,3.14630385487528,7,8,1,2,0.0647952319995966,-1,0.0166968150006142
7,3,67,3.93868480725624,7,10,3,2,0.0914256180112716,-1,2.68416388999321
7,3,68,4.39292517006803,7,12,5,2,0.128162287001032,-1,0.0221180109947454
7,3,69,1.76616780045351,7,5,-2,2,0.0167352310090791,-1,0.0171726320113521
7,3,70,0.375873015873016,7,2,-5,2,0.125779873022111,-1,0.0165714879985899
7,3,71,0.317823129251701,7,1,-6,2,0.0554576209979132,-1,0.0171075149846729
7,3,72,0.255419501133787,7,1,-6,2,0.155410607985687,-1,0.0174406389996875
7,3,73,0.222040816326531,7,1,-6,2,0.158078598993598,-1,0.0175323020084761
7,3,74,0.25687074829932,7,1,-6,2,0.155259229999501,-1,0.0170814470038749
7,3,75,0.229297052154195,7,1,-6,2,0.113299666991225,-1,0.0175133500015363
7,3,76,1.48027210884354,7,5,-2,2,0.504599148989655,-1,0.142770259990357
7,3,77,0.349750566893424,7,2,-5,2,0.163206820987398,-1,0.01703978900332
7,3,78,0.301859410430839,7,1,-6,2,0.373826609022217,-1,0.0175082000205293
7,3,79,2.55854875283447,7,6,-1,2,0.157616389013128,-1,0.0169910800177604
7,3,80,2.47147392290249,7,6,-1,2,0.119051439018222,-1,0.0171356189821381
7,3,81,3.05922902494331,7,7,0,2,0.147681192989694,-1,0.0166415709827561
7,3,82,0.966530612244898,7,3,-4,2,0.127195173001382,-1,0.0170116180088371
7,3,83,3.53814058956916,7,8,1,2,0.120279330993071,-1,0.0174601830076426
7,3,84,2.39165532879819,7,6,-1,2,0.0675927239935845,-1,0.0171647230163217
7,3,85,2.46421768707483,7,7,0,2,0.111060651979642,-1,0.017557276005391
7,3,86,2.53242630385488,7,7,0,2,0.0749985229922459,-1,0.0165321519889403
7,3,87,2.95619047619048,7,7,0,2,0.0780843520187773,-1,0.0175549349805806
7,3,88,3.30303854875283,7,9,2,2,0.0939999950060155,-1,0.0170561159902718
7,3,89,3.3190022675737,7,9,2,2,0.0930585040186998,-1,0.0174498859851155
7,3,90,2.73560090702948,7,8,1,2,0.127655588992639,-1,0.0169374380202498
7,3,91,3.54975056689342,7,9,2,2,0.485634590993868,-1,0.925011674000416
7,3,92,3.96335600907029,7,11,4,2,0.161537034990033,-1,0.0174003319989424
7,3,93,3.65278911564626,7,9,2,2,0.121597746998305,-1,0.0569363539980259
7,3,94,3.52072562358277,7,9,2,2,0.104243244975805,-1,0.0166380720038433
7,3,95,3.41913832199546,7,10,3,2,0.121617961995071,-1,0.016526542021893
7,3,96,3.18548752834467,7,8,1,2,0.126379911991535,-1,0.0169037590094376
7,3,97,2.50195011337869,7,6,-1,2,0.137559080001665,-1,0.016694332996849
7,3,98,3.31319727891156,7,8,1,2,0.191529694013298,-1,0.017412889021216
7,3,99,4.94730158730159,7,12,5,2,0.128848886990454,-1,0.0174696850008331
7,3,100,6.00235827664399,7,17,10,2,0.138603827013867,-1,0.01738741499139
7,3,101,4.60916099773243,7,12,5,2,0.166074263019254,-1,0.0170982739946339
7,3,102,4.78185941043084,7,12,5,2,0.158112631004769,-1,0.0170736589934677
7,3,103,5.84852607709751,7,13,6,2,0.109215124015464,-1,0.0345054960052948
7,3,104,4.00544217687075,7,9,2,2,0.138763134018518,-1,0.0171663259970956
7,3,105,6.39854875283447,7,18,11,2,0.147069179016398,-1,0.0173615209932905
7,3,106,5.17079365079365,7,13,6,2,0.133474712987663,-1,0.0166944410011638
7,3,107,5.20417233560091,7,13,6,2,0.124045216012746,-1,0.0171751540037803
7,3,108,5.67147392290249,7,14,7,2,0.114069649018347,-1,0.0166774969839025
7,3,109,4.52208616780045,7,12,5,2,0.122982022003271,-1,0.0166816580167506
7,3,110,4.7847619047619,7,12,5,2,0.129709062020993,-1,0.0173246000194922
7,3,111,5.08226757369615,7,12,5,2,0.234917883994058,-1,0.0165964270127006
7,3,112,6.16054421768707,7,14,7,2,0.126194565003971,-1,0.0166695039952174
7,3,113,4.08090702947846,7,10,3,2,0.136505550995935,-1,0.0167197510018013
7,3,114,4.87764172335601,7,13,6,2,0.153888969012769,-1,0.0171328730066307
7,3,115,4.51337868480726,7,11,4,2,0.120793081005104,-1,0.0171968979993835
7,3,116,3.94884353741497,7,10,3,2,0.0914252930087969,-1,0.0165816509979777
7,3,117,4.71510204081633,7,12,5,2,0.164982760994462,-1,0.016610432008747
7,3,118,4.7092970521542,7,12,5,2,0.139810302003752,-1,0.0175129270064645
7,3,119,4.75573696145125,7,11,4,2,0.16361879100441,-1,0.0175521729979664
7,3,120,4.47419501133787,7,10,3,2,0.0715485200053081,-1,4.05646096999408
7,3,121,0.634195011337868,7,2,-5,2,0.104871602990897,-1,0.0175411739910487
7,3,122,0.43827664399093,7,2,-5,2,0.0479292600066401,-1,0.0169517830072436
7,3,123,0.243809523809524,7,1,-6,2,0.0800770299974829,-1,0.0166872300032992
7,3,124,0.204625850340136,7,1,-6,2,0.209786228020675,-1,0.0165078110003378
7,3,125,0.400544217687075,7,1,-6,2,0.118020542984596,-1,0.0174732530140318
7,3,126,2.84009070294785,7,7,0,2,0.139742138009751,-1,0.753716908016941
7,3,127,2.80526077097506,7,7,0,2,0.104275516001508,-1,0.0175351389916614
7,3,128,3.47718820861678,7,9,2,2,0.129608343006112,-1,0.016811384994071
7,3,129,2.27410430839002,7,6,-1,2,0.102235410013236,-1,0.0170379840128589
7,3,130,2.61079365079365,7,7,0,2,0.105055462016026,-1,0.0169766750186682
7,4,1,3.62086167800454,11,10,-1,2,0.157338072982384,-1,6.78649476199644
7,4,2,3.97061224489796,11,10,-1,2,0.186620203981875,-1,6.02834102499764
7,4,3,5.4378231292517,11,15,4,2,0.193709664978087,-1,6.81370707997121
7,4,4,4.65414965986395,11,13,2,1,0.261365101992851,-1,0.501060570997652
7,4,5,4.1665306122449,11,11,0,2,0.175406891998136,-1,4.30059285400785
7,4,6,4.07510204081633,11,10,-1,2,0.539130862016464,-1,0.103915579995373
7,4,7,3.64698412698413,11,10,-1,2,0.239517408015672,-1,6.29728828000952
7,4,8,7.06467120181406,11,17,6,1,9.56049247700139,-1,0.945509174023755
7,4,9,4.37115646258503,11,11,0,2,0.37943254399579,-1,5.79039970200392
7,4,10,1.41496598639456,11,4,-7,2,0.0740113930078223,-1,0.0175440330058336
7,4,11,4.41034013605442,11,12,1,2,0.0809915410063695,-1,0.0166808349895291
7,4,12,3.27401360544218,11,9,-2,2,0.0882230720017105,-1,0.577065174991731
7,4,13,3.76743764172336,11,9,-2,2,0.0972522940137424,-1,0.0174278630001936
7,4,14,3.58022675736961,11,10,-1,2,0.133079872990493,-1,0.0170761169865727
7,4,15,4.1534693877551,11,11,0,2,0.128988976008259,-1,0.0165923930180725
7,4,16,7.2518820861678,11,16,5,2,0.150878189015202,-1,0.0173686539928894
7,4,17,1.88517006802721,11,5,-6,2,0.432531488011591,-1,0.0165717930067331
7,4,18,4.3697052154195,11,11,0,2,0.108467339014169,-1,0.0165373310155701
7,4,19,4.46403628117914,11,12,1,2,0.114626427995972,-1,0.0168930219952017
7,4,20,4.20861678004535,11,11,0,2,0.0989794410124887,-1,2.33730429899879
7,4,21,0.238004535147392,11,1,-10,1,0.0165190839907154,-1,1.9707451260183
7,4,22,0.367165532879819,11,2,-9,1,0.193712002976099,-1,0.0175457640143577
7,4,23,0.600816326530612,11,2,-9,1,0.160996958002215,-1,0.0168269809801131
