Subj_idx,Block,Trial_in_block,Trial,Stimulus,RT_start,Response,Confidence,RT_conf,ErrorDirection,RT_error
1,3,1,121,3.0,0.78528,4.6332,3,2.1744,1,0.77096
1,3,2,122,3.0,0.52243,3.6878,2,0.37726,0,0.13949
1,3,3,123,3.0,0.54857,3.0172,2,2.7999,1,0.054545
1,3,4,124,1.5,1.2486,2.2311,3,2.5878,1,0.41786
1,3,5,125,3.0,0.62254,4.5132,2,0.87003,1,0.058947
1,3,6,126,1.5,0.60358,1.7356,3,0.96717,1,1.119
1,3,7,127,3.0,0.36881,3.4348,3,0.96126,0,1.6798
1,3,8,128,3.0,0.51627,3.4316,2,1.2141,1,0.95111
1,3,9,129,3.0,1.0894,3.9617,3,1.7837,1,0.027206
1,3,10,130,3.0,0.45435,3.2116,1,1.7725,1,0.5703
1,3,11,131,3.0,0.68378,3.5313,2,1.6386,1,1.2712
1,3,12,132,1.5,1.0147,1.62,2,2.2071,0,0.84692
1,3,13,133,1.5,0.48974,2.0631,2,1.8486,0,0.014445
1,3,14,134,3.0,0.69715,3.8084,2,2.6548,1,0.03048
1,3,15,135,3.0,0.44729,4.0169,1,2.2002,1,0.014578
1,3,16,136,3.0,1.0754,3.6005,1,1.7617,1,0.088242
1,3,17,137,3.0,1.2698,4.7077,2,1.9138,1,0.0412
1,3,18,138,3.0,0.99258,3.5656,2,1.1508,1,0.030427
1,3,19,139,1.5,0.7537,2.122,3,1.0813,0,1.6909
1,3,20,140,1.5,0.64831,3.3684,2,0.97505,1,0.42422
1,3,21,141,1.5,0.71767,1.7187,2,2.4933,1,0.68584
1,3,22,142,3.0,3.0149,3.1145,1,1.6262,0,1.2633
1,3,23,143,1.5,0.53166,2.5547,2,6.1687,0,0.070731
1,3,24,144,3.0,0.66964,3.7348,1,1.8662,1,0.039205
1,3,25,145,3.0,0.62797,3.6687,2,0.69816,1,0.58038
1,3,26,146,1.5,0.46881,1.9589,3,2.8368,1,1.4148
1,3,27,147,1.5,1.3471,2.1687,2,2.4158,1,1.7932
1,3,28,148,3.0,1.4847,3.2171,3,2.6503,0,0.038041
1,3,29,149,3.0,0.1631,3.0789,1,2.0488,1,0.02718
1,3,30,150,3.0,2.709,3.3473,2,2.3489,1,0.10479
1,3,31,151,1.5,1.384,1.6425,2,1.8242,0,0.09793
1,3,32,152,3.0,0.58386,5.194,2,0.85429,1,0.10983
1,3,33,153,1.5,0.99402,1.9267,2,0.40129,1,0.096578
1,3,34,154,3.0,0.4071,3.3512,1,1.3619,1,0.054848
1,3,35,155,3.0,0.48723,2.9982,1,2.7884,1,0.06846
1,3,36,156,3.0,0.67031,4.1972,2,4.6601,1,0.016764
1,3,37,157,1.5,0.47433,2.3645,2,1.7235,1,0.93474
1,3,38,158,3.0,8.0189,3.5692,2,4.0766,0,0.042629
1,3,39,159,3.0,3.7187,4.4412,1,2.2651,1,0.091828
1,3,40,160,1.5,0.66493,2.8546,1,4.1796,1,1.4974
1,3,41,161,3.0,0.80797,4.0395,2,1.7273,1,3.1011
1,3,42,162,3.0,3.6955,5.6094,1,2.402,1,1.3403
1,3,43,163,1.5,1.2627,2.4913,3,2.2094,0,0.37401
1,3,44,164,3.0,0.55961,4.0798,2,2.909,1,1.7335
1,3,45,165,1.5,2.3141,3.0281,1,2.261,0,0.02432
1,3,46,166,3.0,0.731,3.2325,3,1.3865,0,1.1937
1,3,47,167,3.0,3.4233,6.9169,1,1.5417,1,1.8369
1,3,48,168,1.5,0.78407,0.094208,1,2.4525,0,1.6288
1,3,49,169,1.5,0.64904,2.7422,3,1.5589,1,0.90099
1,3,50,170,3.0,3.5417,4.6804,1,1.6212,1,0.019666
1,3,51,171,1.5,0.50062,2.3951,3,1.463,1,1.4041
1,3,52,172,1.5,0.78342,2.9564,3,1.9057,1,1.133
1,3,53,173,3.0,0.5062,5.6377,2,1.7368,1,0.045248
1,3,54,174,1.5,0.83249,1.9186,3,1.0542,0,1.3597
1,3,55,175,1.5,2.3869,1.9671,1,0.97799,1,1.5418
1,3,56,176,3.0,1.023,4.1619,1,2.6949,1,2.2368
1,3,57,177,1.5,0.88061,2.5575,3,1.0203,1,0.92165
1,3,58,178,3.0,0.69592,4.7437,1,1.7794,1,0.066781
1,3,59,179,1.5,1.0488,2.2085,3,0.79753,1,1.153
1,3,60,180,3.0,0.50346,3.1733,3,1.3184,0,1.0813
1,3,61,181,1.5,0.83011,1.7203,2,2.2696,1,0.015746
1,3,62,182,1.5,0.65006,1.857,3,0.99742,0,1.7778
1,3,63,183,3.0,0.3613,3.606,3,1.5275,1,1.5022
1,3,64,184,1.5,0.83818,1.6734,3,0.89795,0,1.6784
1,3,65,185,1.5,0.725,1.5903,3,0.63429,1,2.5703
1,3,66,186,1.5,0.48721,1.7483,3,1.7509,0,0.054436
1,3,67,187,1.5,0.84817,2.204,2,1.5181,0,2.3316
1,3,68,188,1.5,0.41645,2.294,2,3.5118,1,0.072763
1,3,69,189,1.5,0.58757,2.4736,2,1.208,0,1.4255
1,3,70,190,1.5,0.7499,2.456,2,1.6205,1,0.044048
1,3,71,191,1.5,0.8582,2.5392,1,2.1701,1,0.029145
1,3,72,192,1.5,0.43282,1.4948,3,1.7232,0,0.022001
1,3,73,193,1.5,3.5045,3.0562,1,0.20615,0,1.3763
1,3,74,194,3.0,0.48737,4.1119,2,1.7198,1,0.69406
1,3,75,195,3.0,1.3679,4.2557,2,2.3005,1,0.040395
1,3,76,196,1.5,0.68518,2.3955,2,5.4394,0,0.039009
1,3,77,197,1.5,0.56116,1.8438,3,2.6131,0,1.4761
1,3,78,198,3.0,0.95754,4.0874,2,1.5877,1,0.070485
1,3,79,199,3.0,1.0945,3.4664,3,1.9153,1,4.4255
1,3,80,200,1.5,0.71436,3.1206,2,1.1533,1,0.65788
1,3,81,201,3.0,3.0975,3.6398,1,2.5156,0,0.22836
1,3,82,202,1.5,0.84465,2.3421,3,2.523,0,0.018362
1,3,83,203,1.5,0.92712,2.7904,3,2.6076,1,0.43332
1,3,84,204,3.0,2.8213,4.6296,2,1.5824,1,0.026741
1,3,85,205,3.0,0.72869,3.7563,2,0.76616,1,0.61715
1,3,86,206,1.5,0.62967,2.5063,2,3.0443,1,1.7226
1,3,87,207,1.5,3.7011,1.5896,2,4.035,1,0.063775
1,3,88,208,1.5,0.40183,2.4849,2,1.0398,0,1.9607
1,3,89,209,3.0,1.0346,2.6818,2,7.3531,1,1.3179
1,3,90,210,1.5,0.71475,2.2534,3,1.3548,1,1.7103
2,3,1,121,1.5,0.92531,0.85079,1,1.6324,0,1.6275
2,3,2,122,1.5,0.63674,1.9355,3,1.0796,0,1.564
2,3,3,123,3.0,0.35659,3.4516,3,0.82462,1,1.213
2,3,4,124,3.0,0.41109,3.3179,2,1.0621,1,0.74221
2,3,5,125,3.0,0.37626,4.9663,1,1.2353,1,0.69361
2,3,6,126,3.0,0.36525,3.2675,2,2.8372,1,0.96569
2,3,7,127,3.0,0.33981,2.7007,3,1.664,0,1.3794
2,3,8,128,3.0,0.55977,3.241,2,0.89374,0,1.7792
2,3,9,129,3.0,0.45311,3.5731,2,1.8786,0,1.2508
2,3,10,130,1.5,0.8208,1.023,1,1.2859,0,0.71919
2,3,11,131,3.0,0.46899,3.5476,3,1.0114,0,2.1422
2,3,12,132,1.5,0.73599,1.5465,2,1.2252,0,2.0139
2,3,13,133,3.0,0.38159,2.7794,2,0.91363,0,1.1646
2,3,14,134,3.0,0.63351,3.6068,1,1.5298,0,0.9422
2,3,15,135,3.0,0.30707,3.8145,3,1.837,1,1.5815
2,3,16,136,3.0,0.25038,3.1328,3,0.91344,0,1.2417
2,3,17,137,3.0,0.31155,3.2325,3,0.46404,0,0.29229
2,3,18,138,3.0,0.413,3.233,2,0.098192,1,0.21971
2,3,19,139,3.0,0.40336,1.6616,1,1.0756,0,0.53902
2,3,20,140,1.5,1.0749,1.3378,2,1.272,0,0.4595
2,3,21,141,1.5,0.41049,1.7057,3,0.78319,1,0.19374
2,3,22,142,1.5,0.47084,1.7244,3,1.011,1,0.1781
2,3,23,143,3.0,0.57238,3.9002,2,1.039,1,0.24787
2,3,24,144,1.5,0.72094,1.386,2,0.85672,0,1.6375
2,3,25,145,1.5,0.60047,1.5066,3,1.8988,1,2.5018
2,3,26,146,1.5,0.54687,1.7454,3,1.1735,1,1.3487
2,3,27,147,1.5,0.26457,1.7298,3,1.1366,1,0.38341
2,3,28,148,3.0,0.28068,3.1435,2,1.4964,0,0.91742
2,3,29,149,3.0,0.26597,3.1186,3,1.2515,1,1.0934
2,3,30,150,3.0,0.26861,2.7592,1,1.2843,0,0.68023
2,3,31,151,1.5,0.3094,1.8274,2,0.76104,0,2.2669
2,3,32,152,3.0,0.33739,3.349,3,0.60103,1,0.1838
2,3,33,153,3.0,0.25665,2.9262,2,0.1846,1,0.2469
2,3,34,154,1.5,0.73207,1.1167,1,0.76781,0,0.60716
2,3,35,155,3.0,0.70488,4.2989,3,0.37338,1,0.9132
2,3,36,156,3.0,0.43333,3.1072,3,0.46867,1,0.53478
2,3,37,157,1.5,0.92799,0.82965,1,0.70163,0,0.39555
2,3,38,158,1.5,0.67682,2.0798,2,0.59803,0,0.30376
2,3,39,159,1.5,0.38605,2.0098,3,1.5745,1,0.71103
2,3,40,160,1.5,0.69577,1.5818,2,0.91397,1,0.16559
2,3,41,161,3.0,0.67148,4.0484,3,0.24883,1,0.31848
2,3,42,162,1.5,0.82951,0.93203,2,1.804,0,1.4318
2,3,43,163,1.5,0.25959,1.7291,3,0.89842,0,0.36722
2,3,44,164,1.5,0.21422,1.8174,3,1.8529,1,0.26888
2,3,45,165,3.0,0.27396,3.0652,3,1.7254,1,1.0263
2,3,46,166,3.0,0.25076,3.0471,3,0.77537,0,0.5634
2,3,47,167,3.0,0.2744,3.6269,2,0.13356,1,0.3828
2,3,48,168,1.5,2.2126,0.90186,1,0.85785,0,0.22606
2,3,49,169,3.0,0.24348,2.8059,2,0.46754,0,0.29529
2,3,50,170,1.5,0.73066,1.7189,2,1.2687,1,0.70637
2,3,51,171,1.5,0.72694,1.466,1,0.84042,0,0.92512
2,3,52,172,1.5,0.22982,1.6915,3,1.0495,1,2.4911
2,3,53,173,3.0,0.2368,2.8485,3,0.99043,1,0.21239
2,3,54,174,1.5,0.21882,1.6722,3,1.7348,0,0.35444
2,3,55,175,3.0,0.40998,3.692,1,0.50631,1,0.82525
2,3,56,176,1.5,0.4741,0.85282,1,0.60814,1,0.90229
2,3,57,177,3.0,0.28967,3.2633,3,0.77418,0,1.3632
2,3,58,178,1.5,0.53394,1.0325,2,1.067,1,0.45469
2,3,59,179,3.0,0.28897,2.6759,3,0.32169,1,0.19995
2,3,60,180,3.0,0.32451,2.9524,2,0.9895,1,1.3608
2,3,61,181,1.5,0.27149,1.6256,2,1.0121,0,1.2874
2,3,62,182,3.0,0.30812,3.2773,3,0.70979,1,0.22825
2,3,63,183,1.5,0.36811,1.9588,1,0.74869,1,0.61795
2,3,64,184,3.0,0.63107,2.9412,2,0.77079,1,0.38467
2,3,65,185,1.5,0.74422,1.3921,1,1.1386,1,0.34716
2,3,66,186,1.5,0.40862,1.0026,1,1.2202,1,0.33314
2,3,67,187,1.5,0.33516,1.6721,3,1.5331,1,0.2287
2,3,68,188,1.5,0.24151,1.8036,3,0.46944,1,0.18486
2,3,69,189,1.5,0.22449,1.7406,3,0.72319,1,0.16288
2,3,70,190,3.0,0.26884,3.0603,2,0.647,0,0.39048
2,3,71,191,1.5,0.60934,1.603,1,0.16859,1,0.22224
2,3,72,192,1.5,0.60429,1.4486,1,0.67691,0,0.71614
2,3,73,193,3.0,0.33755,3.0243,2,1.3076,1,0.29873
2,3,74,194,1.5,0.65959,1.9654,1,1.6891,1,0.40821
2,3,75,195,3.0,0.20611,3.4511,3,0.3486,1,0.4187
2,3,76,196,3.0,0.34327,3.33,2,2.9246,1,0.36958
2,3,77,197,1.5,0.73692,1.6484,2,1.0385,1,1.0606
2,3,78,198,1.5,0.75596,1.7744,1,0.8602,0,1.0291
2,3,79,199,1.5,0.55015,2.2694,1,0.81698,1,0.71778
2,3,80,200,3.0,0.43447,3.6588,3,0.90662,1,0.11142
2,3,81,201,3.0,0.28166,3.6191,2,1.2871,0,0.97056
2,3,82,202,1.5,0.5212,0.98648,2,1.1203,0,1.184
2,3,83,203,1.5,0.53126,2.3673,2,0.63874,0,0.3495
2,3,84,204,3.0,0.29502,3.2692,3,1.5889,1,1.4841
2,3,85,205,1.5,0.52058,1.8479,2,0.83869,1,0.5109
2,3,86,206,1.5,0.34136,1.9906,3,0.77173,1,0.22341
2,3,87,207,3.0,0.34317,2.9164,3,0.91138,1,0.25521
2,3,88,208,3.0,0.29495,3.6056,2,0.57852,1,0.67671
2,3,89,209,3.0,0.4225,2.739,2,0.8306,0,0.23964
2,3,90,210,1.5,0.57057,2.2108,1,0.77511,1,0.71424
3,3,1,121,1.5,0.82351,2.1507,3,1.5147,1,1.152
3,3,2,122,1.5,0.88164,1.8418,2,0.8238,1,0.801
3,3,3,123,1.5,0.5801,1.6324,3,0.87796,1,0.67882
3,3,4,124,1.5,0.65441,1.8105,1,1.727,1,1.3251
3,3,5,125,1.5,0.51745,2.2334,2,1.3512,1,0.45602
3,3,6,126,1.5,0.32707,1.4673,3,1.1415,1,0.72591
3,3,7,127,3.0,0.70195,3.1822,2,0.9274,0,1.7168
3,3,8,128,3.0,0.40488,2.586,3,0.91602,1,2.4549
3,3,9,129,3.0,0.5545,2.6876,3,1.217,0,1.0796
3,3,10,130,3.0,0.74282,3.5156,3,1.0384,1,0.59893
3,3,11,131,3.0,0.44096,2.9523,1,0.93826,1,0.62392
3,3,12,132,1.5,0.58537,1.3453,2,0.93738,0,0.70886
3,3,13,133,1.5,0.76353,1.4689,2,0.94447,1,0.49112
3,3,14,134,3.0,0.3421,2.7644,1,1.3152,1,0.65383
3,3,15,135,1.5,1.3957,1.5914,1,0.91254,1,0.61319
3,3,16,136,3.0,0.38622,3.0855,1,0.97668,1,0.47756
3,3,17,137,3.0,0.33986,2.6522,3,1.2769,0,1.9392
3,3,18,138,1.5,0.80797,2.3385,1,1.3688,1,5.1816
3,3,19,139,3.0,0.44205,3.227,1,1.1474,1,0.45297
3,3,20,140,1.5,0.37595,1.7542,2,0.81866,1,1.1453
3,3,21,141,3.0,0.71518,2.7673,1,2.1254,0,0.79795
3,3,22,142,3.0,0.53134,2.7927,1,0.89748,1,0.62721
3,3,23,143,3.0,0.58466,3.3458,1,0.81105,1,0.65373
3,3,24,144,1.5,0.64178,1.9394,2,1.5719,0,0.87067
3,3,25,145,1.5,0.6297,2.5562,1,1.2321,0,1.6657
3,3,26,146,3.0,0.68136,2.8669,1,2.0489,0,1.3014
3,3,27,147,3.0,0.31964,2.6975,2,0.81335,1,0.6152
3,3,28,148,3.0,0.32449,2.678,3,1.574,0,0.44775
3,3,29,149,3.0,0.2916,2.8519,2,0.75365,0,0.65937
3,3,30,150,3.0,0.39082,2.7027,2,0.765,1,0.7919
3,3,31,151,1.5,0.27373,1.827,2,0.84971,1,0.88147
3,3,32,152,1.5,0.53594,2.347,1,1.1608,0,1.5906
3,3,33,153,3.0,0.82876,3.1057,3,1.1419,1,1.3381
3,3,34,154,1.5,1.1216,2.172,2,0.90703,1,0.85002
3,3,35,155,1.5,0.63715,2.7476,2,1.6259,0,2.4891
3,3,36,156,1.5,0.86197,1.6415,2,1.1241,1,0.96349
3,3,37,157,3.0,1.2652,2.8322,2,1.2277,1,0.51514
3,3,38,158,3.0,0.69008,2.9005,2,1.6629,1,0.66591
3,3,39,159,3.0,0.48017,2.6332,2,1.9121,0,1.1525
3,3,40,160,1.5,0.83224,2.2178,1,1.3774,0,0.99021
3,3,41,161,3.0,0.82321,2.499,3,0.9256,0,1.3389
3,3,42,162,3.0,0.63031,3.4211,1,1.1271,1,0.47707
3,3,43,163,1.5,0.59925,1.0681,2,0.88173,0,0.55359
3,3,44,164,3.0,0.40668,3.1274,2,1.2215,0,1.784
3,3,45,165,3.0,0.97994,2.7311,1,1.5512,0,0.55498
3,3,46,166,1.5,0.52251,2.0502,2,1.4906,0,1.9601
3,3,47,167,3.0,0.8522,3.2583,3,1.0322,1,1.9296
3,3,48,168,3.0,0.38599,3.4478,2,0.96259,1,0.58846
3,3,49,169,1.5,0.96786,2.4945,1,1.0496,0,1.8292
3,3,50,170,3.0,0.58559,2.7219,2,1.1803,1,0.57741
3,3,51,171,3.0,0.45448,2.8871,2,1.5517,0,1.3941
3,3,52,172,3.0,0.56175,3.4299,1,1.6363,0,1.0317
3,3,53,173,3.0,0.42622,3.0271,2,1.8121,1,0.88881
3,3,54,174,1.5,1.3431,2.6263,2,0.94668,1,0.72749
3,3,55,175,1.5,1.098,2.7204,1,0.90371,1,0.83372
3,3,56,176,3.0,0.87121,2.8226,2,0.99346,1,1.1027
3,3,57,177,3.0,0.48295,3.2566,2,1.5935,1,1.0511
3,3,58,178,1.5,0.87984,2.3561,2,1.6691,0,1.1196
3,3,59,179,1.5,1.3343,1.6302,2,0.80092,1,0.89404
3,3,60,180,1.5,0.38618,1.6602,1,1.5758,1,2.7378
3,3,61,181,1.5,0.7453,1.5186,2,0.94377,1,1.4526
3,3,62,182,3.0,0.60018,2.218,3,1.0665,0,1.9293
3,3,63,183,3.0,0.67978,3.357,2,1.2297,0,1.0766
3,3,64,184,1.5,0.43781,2.1988,2,1.2265,1,0.55199
3,3,65,185,1.5,1.0599,1.9399,2,1.2465,0,0.46342
3,3,66,186,3.0,0.42598,2.9519,2,1.3901,0,3.0992
3,3,67,187,3.0,1.0574,3.0621,1,1.3865,1,0.96965
3,3,68,188,1.5,0.63696,1.4966,2,0.85112,1,0.60648
3,3,69,189,1.5,0.9067,1.7384,2,1.0945,1,0.80439
3,3,70,190,1.5,1.0076,1.6747,2,0.83708,1,0.4719
3,3,71,191,1.5,0.4745,1.9277,2,0.9518,1,0.63186
3,3,72,192,3.0,0.70999,3.0785,3,1.937,1,2.3054
3,3,73,193,1.5,0.89656,3.2429,2,1.1342,1,0.79273
3,3,74,194,1.5,2.5094,1.8351,1,1.0922,1,0.52536
3,3,75,195,1.5,2.2727,2.2698,3,1.2793,1,4.2431
3,3,76,196,1.5,0.37911,2.0443,2,0.63744,1,0.5859
3,3,77,197,3.0,0.39243,2.4778,2,1.0378,0,0.8719
3,3,78,198,3.0,0.98951,4.35,1,1.3116,1,1.1163
3,3,79,199,1.5,0.38215,1.8558,2,0.72107,0,0.99866
3,3,80,200,3.0,0.52534,2.9659,2,0.92391,0,2.5497
3,3,81,201,3.0,0.55723,2.5253,2,1.0227,1,1.223
3,3,82,202,1.5,1.2869,2.6208,1,1.2802,0,0.48787
3,3,83,203,1.5,1.081,2.0321,2,0.95048,1,0.86894
3,3,84,204,1.5,1.1799,3.8814,1,1.024,1,0.67392
3,3,85,205,1.5,0.52855,2.007,2,0.84615,0,0.90286
3,3,86,206,3.0,0.54335,2.5281,3,1.3131,1,2.8188
3,3,87,207,3.0,1.092,2.8894,2,1.1309,1,0.98949
3,3,88,208,3.0,1.0188,3.508,2,1.755,0,2.0078
3,3,89,209,1.5,0.50634,1.075,2,0.85105,1,1.1691
3,3,90,210,1.5,0.73182,1.9664,2,0.99079,1,1.4503
4,3,1,121,3.0,0.42252,2.3513,2,0.65217,1,0.62037
4,3,2,122,1.5,0.57855,0.64296,2,0.5375,1,0.57228
4,3,3,123,3.0,0.40672,1.9889,2,0.63261,1,0.55628
4,3,4,124,3.0,0.3113,3.2189,2,0.56365,1,0.64067
4,3,5,125,1.5,0.42909,1.0822,2,0.7291,1,0.6642
4,3,6,126,3.0,0.33178,3.4555,2,1.3032,0,0.77043
4,3,7,127,3.0,0.92348,3.4125,2,0.686,1,0.75921
4,3,8,128,3.0,1.4288,3.9266,2,0.94597,1,0.83891
4,3,9,129,3.0,0.37026,1.724,2,0.69746,0,1.1918
4,3,10,130,1.5,0.79422,1.9923,2,0.57386,1,0.86334
4,3,11,131,3.0,0.39187,2.6772,3,0.49864,1,0.69271
4,3,12,132,1.5,0.9973,0.93167,2,0.91721,0,0.83073
4,3,13,133,3.0,0.56797,3.2963,2,0.78659,0,1.409
4,3,14,134,1.5,0.59488,1.4187,2,0.64257,0,0.86654
4,3,15,135,3.0,0.36552,3.7443,1,1.6699,0,0.869
4,3,16,136,3.0,0.43216,3.7561,2,1.154,1,0.7957
4,3,17,137,1.5,0.83987,2.2134,2,1.1978,0,0.68948
4,3,18,138,1.5,0.39681,1.5328,2,0.64022,0,0.76402
4,3,19,139,1.5,0.84269,1.2663,2,0.64097,1,0.65173
4,3,20,140,3.0,0.44216,2.2529,2,0.617,0,1.1815
4,3,21,141,3.0,0.4296,3.2578,2,0.65604,1,2.0618
4,3,22,142,1.5,0.56306,2.1942,2,1.551,0,0.84111
4,3,23,143,3.0,0.43263,2.7315,2,0.72844,1,0.97596
4,3,24,144,3.0,0.50851,2.2026,2,0.71781,1,0.61944
4,3,25,145,1.5,0.59701,2.3574,2,0.65875,0,0.81486
4,3,26,146,3.0,0.3857,1.8968,2,0.66223,0,0.5395
4,3,27,147,1.5,0.53673,1.6476,2,0.6384,1,0.77387
4,3,28,148,1.5,0.41199,2.4811,2,0.74811,0,0.60535
4,3,29,149,3.0,0.52264,3.0633,2,0.83758,0,0.85945
4,3,30,150,3.0,0.58136,2.8551,2,1.2037,1,0.98459
4,3,31,151,1.5,0.39142,1.1778,2,0.72394,1,0.66321
4,3,32,152,3.0,0.33614,1.9349,2,0.62973,1,0.82684
4,3,33,153,1.5,0.43457,1.5204,3,0.64574,0,0.50129
4,3,34,154,1.5,0.27484,1.69,2,0.5605,1,0.55
4,3,35,155,3.0,0.49232,2.9282,3,0.58672,1,0.62269
4,3,36,156,1.5,0.44827,1.2926,2,0.83761,1,0.58546
4,3,37,157,1.5,0.39745,1.717,3,0.41521,1,0.65617
4,3,38,158,3.0,0.58094,3.7049,3,0.5524,1,1.3965
4,3,39,159,1.5,0.78207,1.6548,2,0.6084,0,0.51545
4,3,40,160,3.0,0.38617,3.0089,2,0.93337,1,0.65548
4,3,41,161,3.0,0.62088,2.7728,2,1.1445,0,0.51506
4,3,42,162,1.5,0.73578,2.4213,3,0.681,1,0.57838
4,3,43,163,3.0,0.79608,3.2301,2,0.52533,1,0.56442
4,3,44,164,3.0,0.65895,4.1518,2,0.52296,1,0.56276
4,3,45,165,1.5,0.59767,4.1291,2,0.79639,1,1.0392
4,3,46,166,3.0,0.49406,5.0797,1,1.1315,1,0.72829
4,3,47,167,3.0,0.41783,1.6837,2,0.69139,0,0.57583
4,3,48,168,1.5,0.68032,2.357,2,0.58322,1,0.5821
4,3,49,169,1.5,0.4955,1.0558,2,0.69946,0,0.85539
4,3,50,170,1.5,0.70516,1.2612,2,0.73562,1,0.62141
4,3,51,171,1.5,0.37173,1.2999,2,0.74167,1,0.66482
4,3,52,172,1.5,0.28612,1.7842,2,0.69231,1,0.90172
4,3,53,173,3.0,0.44745,3.4415,2,0.89415,0,1.1042
4,3,54,174,3.0,0.40692,2.9005,3,0.68745,1,0.6488
4,3,55,175,3.0,0.32863,3.4581,3,0.55492,0,0.53739
4,3,56,176,3.0,0.38427,3.2828,2,1.3386,1,0.74815
4,3,57,177,1.5,0.62657,1.3915,2,0.78743,0,0.72334
4,3,58,178,3.0,0.4902,4.3764,2,0.51627,1,0.59405
4,3,59,179,3.0,0.37435,3.2031,2,0.96469,1,0.69016
4,3,60,180,1.5,0.46276,1.4073,2,0.66085,1,0.64192
4,3,61,181,3.0,0.41761,2.0839,2,0.7145,1,0.6664
4,3,62,182,1.5,0.87224,2.073,3,0.72202,1,0.54886
4,3,63,183,3.0,0.42022,3.8604,2,0.81875,1,0.69544
4,3,64,184,3.0,0.40081,3.5704,2,0.8254,1,0.6515
4,3,65,185,3.0,0.42541,3.5291,3,0.77222,1,0.59973
4,3,66,186,3.0,0.42403,4.315,3,1.1354,1,0.89421
4,3,67,187,3.0,0.48053,3.6291,3,0.6475,1,0.65396
4,3,68,188,3.0,0.44599,4.3825,2,0.52354,1,0.58842
4,3,69,189,1.5,0.7141,6.2327,1,1.2182,1,0.69331
4,3,70,190,1.5,0.49771,0.8798,2,1.652,0,0.59236
4,3,71,191,1.5,0.41521,1.9176,2,0.62808,0,0.51424
4,3,72,192,1.5,0.51627,1.1677,2,0.63179,0,0.5176
4,3,73,193,3.0,0.40572,3.2252,2,0.78142,0,0.5169
4,3,74,194,1.5,0.45866,1.5533,2,0.61964,0,0.54673
4,3,75,195,3.0,0.77351,2.9877,2,1.2659,1,0.69127
4,3,76,196,1.5,0.40428,2.4866,2,0.89197,0,0.63825
4,3,77,197,1.5,0.44336,1.5178,2,0.7805,1,0.5899
4,3,78,198,1.5,0.45764,1.7392,2,0.54631,1,0.54019
4,3,79,199,1.5,0.42484,0.68973,2,0.58853,0,0.46133
4,3,80,200,1.5,0.42462,1.515,2,0.65202,1,0.57107
4,3,81,201,1.5,0.62707,2.5297,2,1.0621,1,0.78886
4,3,82,202,1.5,0.89687,2.1568,2,0.78402,0,0.84407
4,3,83,203,3.0,0.29394,2.7549,3,0.74362,1,0.6538
4,3,84,204,1.5,0.38675,1.7983,2,0.51362,0,0.57865
4,3,85,205,3.0,0.27943,2.3333,2,0.62577,1,0.5155
4,3,86,206,3.0,0.37457,3.4525,2,0.80151,1,0.57001
4,3,87,207,1.5,0.50434,1.536,2,0.86846,0,0.5947
4,3,88,208,1.5,0.42566,1.402,2,0.70736,1,0.8395
4,3,89,209,1.5,0.42403,3.2262,1,0.90789,1,0.76377
4,3,90,210,1.5,0.48878,1.0133,2,0.60117,1,0.60747
5,3,1,121,1.5,0.53991,1.3262,2,2.076,0,0.37467
5,3,2,122,1.5,0.40008,1.4329,3,0.42788,1,0.4636
5,3,3,123,3.0,0.50813,3.0889,2,0.692,1,0.46509
5,3,4,124,3.0,0.37517,2.8153,2,1.4035,1,1.319
5,3,5,125,3.0,0.38416,2.7456,2,1.2492,1,0.77846
5,3,6,126,3.0,0.47588,2.6656,2,1.3496,1,0.70384
5,3,7,127,3.0,1.1865,3.2079,2,1.8437,1,2.5018
5,3,8,128,1.5,0.59422,1.2299,3,2.9642,1,1.3513
5,3,9,129,3.0,0.44126,2.5411,2,1.6704,1,5.7574
5,3,10,130,3.0,0.61825,2.5832,2,1.6251,1,3.3997
5,3,11,131,3.0,0.41523,3.081,2,1.0877,1,0.84647
5,3,12,132,1.5,0.84102,2.6008,3,2.0898,0,0.58348
5,3,13,133,3.0,0.71961,3.5725,2,1.9652,1,2.4266
5,3,14,134,1.5,0.6845,1.7569,2,4.0231,0,0.70292
5,3,15,135,1.5,1.1086,1.3756,2,2.4637,0,2.614
5,3,16,136,1.5,0.60092,1.932,3,1.1391,1,0.26048
5,3,17,137,1.5,0.60187,1.4949,3,1.3869,1,0.80699
5,3,18,138,1.5,1.2096,1.4149,2,1.4513,0,0.44334
5,3,19,139,3.0,0.37002,3.2355,2,1.338,1,0.99746
5,3,20,140,3.0,0.39389,2.7173,2,2.2643,1,0.60336
5,3,21,141,3.0,0.63999,2.2257,2,2.1604,0,0.63737
5,3,22,142,1.5,0.39867,1.6048,2,5.6209,1,2.7627
5,3,23,143,3.0,0.5321,3.743,3,2.5691,1,1.4152
5,3,24,144,3.0,0.32181,2.3369,2,1.6173,0,0.41669
5,3,25,145,3.0,0.57996,2.3318,2,1.8375,0,1.1446
5,3,26,146,1.5,0.6177,1.3837,2,1.5536,0,0.63317
5,3,27,147,1.5,0.49083,1.1765,1,4.439,0,0.97578
5,3,28,148,3.0,0.47981,2.982,3,0.7898,1,0.63749
5,3,29,149,3.0,0.91376,2.5819,2,1.4121,1,1.0036
5,3,30,150,1.5,0.68215,0.93115,1,2.1146,0,0.52981
5,3,31,151,3.0,0.41135,2.805,2,3.7181,0,1.0637
5,3,32,152,3.0,1.0304,2.8567,2,1.7686,1,0.89259
5,3,33,153,3.0,0.44103,2.7655,2,5.7898,0,0.8026
5,3,34,154,1.5,0.72647,2.5783,2,2.1626,1,0.82657
5,3,35,155,3.0,0.35583,3.2883,3,1.7901,1,0.38487
5,3,36,156,1.5,0.86228,1.8814,2,1.3753,1,0.5382
5,3,37,157,3.0,0.74547,2.8809,1,1.8377,1,1.0082
5,3,38,158,3.0,0.32375,2.364,1,1.2745,1,0.41186
5,3,39,159,1.5,0.54904,1.8307,2,3.9743,1,1.429
5,3,40,160,3.0,0.58738,3.035,1,0.80086,1,0.29487
5,3,41,161,1.5,0.77997,1.1568,3,1.2738,1,0.37387
5,3,42,162,1.5,0.81921,1.1828,3,0.72894,1,0.36405
5,3,43,163,1.5,0.38386,1.6089,2,1.3368,1,0.97053
5,3,44,164,3.0,0.65894,2.4272,2,1.4379,0,0.421
5,3,45,165,3.0,0.84574,3.3568,1,1.8669,0,0.60223
5,3,46,166,1.5,0.62889,2.2053,3,1.3196,1,0.20783
5,3,47,167,1.5,0.52286,1.0383,1,1.4225,0,0.60955
5,3,48,168,1.5,0.4188,1.9092,2,1.5612,1,0.65224
5,3,49,169,3.0,0.46365,3.7963,2,1.6099,1,0.31271
5,3,50,170,1.5,0.52409,1.3518,2,1.2809,0,0.50237
5,3,51,171,3.0,2.948,1.9773,3,0.68735,0,0.8227
5,3,52,172,3.0,0.53311,2.5187,3,3.7279,1,1.0704
5,3,53,173,3.0,1.2096,2.4146,2,1.1735,0,0.74903
5,3,54,174,1.5,1.3869,3.1587,2,1.3692,0,0.45673
5,3,55,175,3.0,0.44684,2.7321,2,0.91547,1,0.7803
5,3,56,176,1.5,0.39702,1.3798,2,3.6254,0,0.65574
5,3,57,177,3.0,0.55703,2.763,1,1.4639,0,0.51279
5,3,58,178,3.0,0.3813,2.3296,2,1.4387,1,0.27253
5,3,59,179,3.0,0.33598,2.81,2,1.8603,0,3.7255
5,3,60,180,3.0,0.54902,2.3817,2,1.0485,1,0.64202
5,3,61,181,3.0,0.32319,2.4886,2,1.4689,0,6.1433
5,3,62,182,3.0,0.38298,2.3945,2,3.6619,0,0.57182
5,3,63,183,1.5,0.49031,2.688,1,4.3806,0,0.73336
5,3,64,184,3.0,0.31831,3.2593,2,1.5337,1,1.5913
5,3,65,185,1.5,0.63449,2.1583,3,1.0476,1,0.32761
5,3,66,186,1.5,0.59358,1.4784,3,0.86275,0,0.75191
5,3,67,187,1.5,0.43737,1.6123,2,2.5737,1,1.0325
5,3,68,188,1.5,2.3886,1.6697,2,1.0933,1,0.35209
5,3,69,189,3.0,0.29904,2.9185,3,0.67703,1,1.5788
5,3,70,190,3.0,0.45345,2.835,2,1.377,0,2.5134
5,3,71,191,1.5,0.50171,1.7962,2,6.2991,1,0.99289
5,3,72,192,3.0,0.38351,3.2316,1,1.8017,1,1.88
5,3,73,193,3.0,1.834,3.2341,3,1.7112,1,0.51484
5,3,74,194,1.5,1.3265,1.8025,2,1.4429,1,1.2003
5,3,75,195,1.5,1.0118,1.5298,3,1.2631,0,1.3627
5,3,76,196,1.5,1.4039,1.9197,1,1.631,1,0.50108
5,3,77,197,1.5,0.61446,1.3304,3,6.388,1,1.2987
5,3,78,198,3.0,0.47954,3.0579,1,1.8436,1,0.58886
5,3,79,199,1.5,0.41608,1.6188,2,2.7175,1,0.58972
5,3,80,200,3.0,0.53999,2.3881,3,1.6682,1,0.51749
5,3,81,201,1.5,0.39725,1.3291,3,1.5116,1,0.97829
5,3,82,202,1.5,0.37937,1.4949,2,2.0613,1,0.62672
5,3,83,203,1.5,0.35242,1.4099,2,35.564,1,0.82963
5,3,84,204,1.5,0.37226,1.0743,1,1.5879,0,0.70821
5,3,85,205,1.5,0.32572,1.6162,2,9.0919,1,1.0052
5,3,86,206,3.0,0.38978,3.3883,1,4.2156,1,0.76252
5,3,87,207,1.5,0.32119,2.0989,1,1.4145,1,0.26349
5,3,88,208,1.5,0.68506,2.2196,3,1.8551,1,1.308
5,3,89,209,1.5,0.42458,2.3775,1,1.1995,1,0.26737
5,3,90,210,1.5,0.40441,1.6361,2,5.819,0,0.63469
6,3,1,121,1.5,0.48121,2.0927,2,7.6861,1,0.10483
6,3,2,122,1.5,0.89809,3.1082,2,2.5832,1,0.54202
6,3,3,123,3.0,0.36809,2.3455,3,0.55162,1,1.2952
6,3,4,124,3.0,0.48848,2.3366,1,2.4177,1,0.10183
6,3,5,125,3.0,0.38435,3.0337,2,1.9243,1,0.15985
6,3,6,126,3.0,0.35233,3.3851,2,2.999,1,0.13905
6,3,7,127,1.5,0.47708,1.2795,2,1.3513,1,0.33067
6,3,8,128,1.5,0.36497,1.2436,2,1.9269,0,0.10049
6,3,9,129,3.0,0.34871,2.5063,2,1.2441,1,0.14027
6,3,10,130,1.5,0.32699,1.7549,2,0.85748,0,0.56422
6,3,11,131,3.0,0.25399,7.5483,1,0.96383,1,0.56476
6,3,12,132,1.5,0.49131,2.0399,1,1.7338,1,0.61672
6,3,13,133,3.0,0.92443,2.8021,2,0.92589,1,0.46515
6,3,14,134,1.5,1.2707,1.7588,2,1.0619,0,0.62973
6,3,15,135,1.5,0.6914,1.6769,2,1.7373,1,0.57015
6,3,16,136,3.0,0.96678,2.4307,2,1.248,1,0.80243
6,3,17,137,3.0,0.65263,3.3215,2,0.54053,1,0.48878
6,3,18,138,3.0,0.44014,3.5769,2,1.4072,1,0.57318
6,3,19,139,3.0,0.51942,2.9976,2,2.6258,1,0.14708
6,3,20,140,1.5,0.48776,1.3859,2,0.49369,0,0.75498
6,3,21,141,3.0,0.32996,3.1457,2,1.7741,0,0.17359
6,3,22,142,3.0,0.65838,2.7903,3,1.1691,1,0.42027
6,3,23,143,1.5,2.6547,2.743,1,1.5215,1,0.77084
6,3,24,144,1.5,0.49259,1.3402,2,0.94951,0,0.66735
6,3,25,145,1.5,0.39887,1.0426,2,0.5984,0,0.37938
6,3,26,146,1.5,0.26077,1.4804,2,0.82633,0,0.53851
6,3,27,147,3.0,0.40398,2.4106,2,0.76286,0,0.47616
6,3,28,148,1.5,0.54892,1.1805,3,2.0141,0,0.45456
6,3,29,149,3.0,0.43059,2.8786,2,1.4496,1,0.1661
6,3,30,150,3.0,0.37608,6.5174,1,0.6817,1,0.31671
6,3,31,151,3.0,0.28674,2.1237,3,1.2215,1,0.096975
6,3,32,152,3.0,0.49082,2.6638,3,0.87657,1,0.066409
6,3,33,153,1.5,0.39888,1.1853,2,1.2561,0,0.13614
6,3,34,154,1.5,2.11,1.3371,2,0.38238,0,0.45654
6,3,35,155,1.5,0.36626,1.094,2,0.44896,0,0.4936
6,3,36,156,3.0,0.34574,3.0193,2,0.43972,0,0.62512
6,3,37,157,1.5,0.43872,1.162,2,1.1125,0,0.25177
6,3,38,158,3.0,0.04524,2.2074,2,1.5091,0,0.53829
6,3,39,159,1.5,0.95036,1.9549,2,0.74496,1,1.1889
6,3,40,160,3.0,0.29654,3.1575,2,1.3941,0,0.21476
6,3,41,161,3.0,1.4108,2.8774,2,1.4735,1,1.0978
6,3,42,162,1.5,0.36375,1.8803,2,0.38627,0,0.37323
6,3,43,163,3.0,0.45717,2.4395,2,1.0822,0,0.66603
6,3,44,164,1.5,0.35506,4.1123,1,0.97001,1,0.68414
6,3,45,165,1.5,1.0975,4.0687,2,1.6387,1,0.36054
6,3,46,166,1.5,0.66258,2.268,2,0.7783,1,0.40083
6,3,47,167,1.5,0.66785,1.7213,3,0.24447,1,0.32718
6,3,48,168,1.5,0.61904,1.6843,2,0.26537,1,0.34441
6,3,49,169,1.5,0.30082,1.7461,2,0.27335,0,0.28927
6,3,50,170,3.0,0.68424,2.9687,2,0.27686,0,0.47598
6,3,51,171,3.0,0.99338,4.0904,3,0.62863,0,0.58906
6,3,52,172,3.0,0.27937,3.1327,3,1.3899,1,0.34859
6,3,53,173,1.5,0.62684,1.0416,1,0.38834,0,1.0735
6,3,54,174,3.0,0.33253,2.3563,1,1.5074,0,0.14863
6,3,55,175,3.0,0.35559,2.876,2,0.35893,1,0.35415
6,3,56,176,3.0,0.29346,5.2046,1,2.2519,1,0.2787
6,3,57,177,1.5,0.38881,2.7877,1,0.95405,1,0.24707
6,3,58,178,1.5,0.32028,6.4982,1,1.1529,1,0.24596
6,3,59,179,3.0,0.20744,2.3786,3,0.82488,1,0.40262
6,3,60,180,1.5,0.36155,2.2814,2,1.4122,1,0.16716
6,3,61,181,3.0,0.34955,2.5568,2,0.75812,1,0.31414
6,3,62,182,3.0,0.24913,2.332,1,1.5752,0,0.12444
6,3,63,183,3.0,0.41542,4.5054,1,1.2257,1,0.10016
6,3,64,184,1.5,0.35393,1.1729,1,0.46133,0,0.85102
6,3,65,185,3.0,0.41523,1.6806,2,1.0626,1,0.38856
6,3,66,186,1.5,0.3609,4.2812,1,0.65932,1,0.29014
6,3,67,187,1.5,0.43167,2.0809,3,0.33603,1,0.29733
6,3,68,188,1.5,0.4666,1.1316,2,0.32845,0,0.31491
6,3,69,189,3.0,1.1956,3.0771,2,0.22343,1,0.26403
6,3,70,190,3.0,1.3416,2.0627,2,0.2768,0,0.2263
6,3,71,191,1.5,0.88341,2.3803,2,0.77805,0,0.11257
6,3,72,192,1.5,0.44403,1.0562,3,1.0105,0,0.1414
6,3,73,193,1.5,0.51943,2.1225,2,1.8194,0,0.081687
6,3,74,194,3.0,0.25405,2.487,2,0.26671,0,0.25718
6,3,75,195,3.0,0.49317,3.4795,3,0.91054,1,0.078846
6,3,76,196,3.0,0.44789,2.843,2,0.322,1,0.21156
6,3,77,197,3.0,0.27668,2.5177,3,0.93838,1,0.28676
6,3,78,198,1.5,0.36675,1.6699,2,0.33147,0,0.36858
6,3,79,199,1.5,0.4452,2.2947,2,0.3118,0,0.74063
6,3,80,200,3.0,0.13621,2.0112,1,2.0385,0,0.14455
6,3,81,201,1.5,0.66449,4.0792,2,2.2456,0,0.1512
6,3,82,202,3.0,0.46582,3.1687,2,0.61328,0,0.42848
6,3,83,203,1.5,0.51966,1.4353,2,0.23091,0,0.26774
6,3,84,204,3.0,0.30665,1.9012,2,0.17891,0,0.21632
6,3,85,205,3.0,0.68453,3.1702,3,0.16428,0,2.2064
6,3,86,206,1.5,0.45564,1.6259,3,0.88764,1,0.30925
6,3,87,207,3.0,0.51161,2.156,3,0.34524,1,0.37782
6,3,88,208,1.5,0.51014,1.6791,3,0.78985,1,0.76239
6,3,89,209,1.5,0.47445,1.8148,3,0.41314,0,0.50304
6,3,90,210,1.5,0.62623,2.4914,2,1.9847,0,0.42873
7,3,1,121,3.0,2.5957,2.8503,2,1.7635,1,2.516
7,3,2,122,1.5,0.71937,1.3083,2,1.0884,1,3.1221
7,3,3,123,3.0,0.4317,3.1928,3,1.1332,0,1.6292
7,3,4,124,3.0,0.5304,3.346,3,1.2109,0,1.9775
7,3,5,125,3.0,0.41676,2.7321,2,1.0729,1,2.5119
7,3,6,126,1.5,0.77407,1.9764,2,0.8997,1,1.6309
7,3,7,127,1.5,0.54012,1.4639,3,0.83857,1,2.8484
7,3,8,128,1.5,0.52391,1.1268,3,0.73957,1,1.7511
7,3,9,129,1.5,0.40963,1.5292,2,0.99943,1,0.66762
7,3,10,130,1.5,0.41857,1.484,3,0.81635,0,0.756
7,3,11,131,1.5,0.41005,1.5046,3,0.67181,1,1.2489
7,3,12,132,3.0,0.43071,2.767,3,1.2252,1,1.4512
7,3,13,133,3.0,0.37083,2.0739,2,1.1963,0,2.2755
7,3,14,134,3.0,0.50541,2.3993,2,1.163,1,0.75028
7,3,15,135,1.5,0.55591,1.1996,3,0.67902,0,0.61469
7,3,16,136,1.5,0.42808,1.6804,2,1.1749,1,0.76355
7,3,17,137,1.5,0.39374,1.9047,2,1.1835,1,0.67936
7,3,18,138,3.0,0.34208,2.4026,3,1.03,1,0.82636
7,3,19,139,3.0,0.36353,1.7926,2,1.1498,0,1.2287
7,3,20,140,3.0,0.52299,1.9386,2,1.2337,0,0.76632
7,3,21,141,1.5,0.4666,1.394,3,0.9358,1,0.78399
7,3,22,142,1.5,0.52078,1.4367,2,1.4819,0,1.2145
7,3,23,143,1.5,0.51803,1.3827,3,0.97853,0,2.0003
7,3,24,144,3.0,0.43047,2.7915,3,1.4467,0,0.85075
7,3,25,145,1.5,0.44951,1.6188,3,1.0434,0,1.2399
7,3,26,146,1.5,0.46039,1.2923,2,1.0137,1,0.78969
7,3,27,147,1.5,0.42771,1.755,3,1.6093,0,3.0495
7,3,28,148,1.5,0.65658,1.5134,3,0.69991,1,0.61903
7,3,29,149,1.5,0.27004,1.6362,3,2.1192,0,1.542
7,3,30,150,3.0,0.4067,2.376,2,1.2981,0,0.92724
7,3,31,151,1.5,0.41686,1.5693,3,2.3688,0,1.0922
7,3,32,152,1.5,0.49002,1.5647,2,0.67662,1,0.65246
7,3,33,153,1.5,0.36208,1.2575,2,1.8111,0,1.0894
7,3,34,154,3.0,0.42991,1.8828,3,1.9524,0,2.8543
7,3,35,155,3.0,0.60689,2.4267,2,1.7482,1,0.81341
7,3,36,156,1.5,0.56792,1.4717,2,1.1085,0,1.0877
7,3,37,157,1.5,0.49148,1.2271,3,0.63589,0,2.6969
7,3,38,158,3.0,0.409,2.3529,3,1.1044,0,2.9598
7,3,39,159,3.0,0.44491,2.2061,3,1.0087,1,0.85064
7,3,40,160,3.0,0.43397,2.07,2,2.9806,0,0.83843
7,3,41,161,3.0,0.18108,3.2929,2,1.221,0,4.7584
7,3,42,162,3.0,0.39344,2.5048,2,1.9177,0,1.4295
7,3,43,163,1.5,0.54894,1.3927,3,0.75119,1,2.1574
7,3,44,164,3.0,0.45793,2.2275,2,0.912,0,1.7265
7,3,45,165,1.5,0.45225,1.3348,3,2.13,1,0.84002
7,3,46,166,1.5,0.59557,1.782,2,0.92626,1,1.6265
7,3,47,167,3.0,0.52829,2.3434,2,1.2369,0,0.9831
7,3,48,168,3.0,0.40693,2.0891,2,0.99595,0,0.7888
7,3,49,169,1.5,0.45114,1.5588,3,1.0002,0,2.3303
7,3,50,170,3.0,0.40736,2.6281,3,0.98625,1,0.74616
7,3,51,171,3.0,0.42165,2.2614,3,0.87616,0,2.5274
7,3,52,172,3.0,0.51017,2.6669,3,1.5011,1,1.4049
7,3,53,173,1.5,0.62423,1.7767,2,0.56235,1,1.1779
7,3,54,174,3.0,0.86533,2.6665,2,0.93772,1,0.68531
7,3,55,175,3.0,0.38439,2.2076,3,0.94676,0,2.9154
7,3,56,176,1.5,0.46785,1.6705,2,0.89469,0,1.2054
7,3,57,177,3.0,0.55453,1.9476,2,1.6761,0,1.0493
7,3,58,178,1.5,0.37405,1.7151,3,0.86452,1,2.2154
7,3,59,179,1.5,0.40627,1.6508,3,0.70467,1,0.82347
7,3,60,180,1.5,0.97742,1.841,2,0.8229,1,2.1502
7,3,61,181,3.0,0.4934,2.4545,2,0.91765,0,1.4189
7,3,62,182,1.5,0.53039,2.2083,2,1.2466,1,0.68871
7,3,63,183,1.5,0.4404,1.5016,3,0.74288,1,0.70399
7,3,64,184,1.5,0.66741,1.807,2,1.1227,1,0.7988
7,3,65,185,3.0,0.50943,3.2914,3,0.88223,0,1.2038
7,3,66,186,3.0,0.48171,2.6306,2,1.1002,1,1.6938
7,3,67,187,3.0,0.4963,2.7319,2,1.1038,1,0.77095
7,3,68,188,1.5,0.37364,2.139,2,1.7333,0,3.2406
7,3,69,189,3.0,0.49479,2.1683,2,0.95321,0,1.034
7,3,70,190,3.0,0.39697,2.4459,3,1.7753,0,0.98729
7,3,71,191,1.5,0.50619,1.476,3,0.85141,0,1.2443
7,3,72,192,3.0,0.46405,2.9173,2,1.5749,0,2.5615
7,3,73,193,1.5,0.42759,1.3925,2,1.8391,0,0.98344
7,3,74,194,1.5,0.46486,1.9804,3,0.63723,0,2.1735
7,3,75,195,1.5,0.55074,1.6703,3,0.93228,1,0.70365
7,3,76,196,3.0,0.40955,2.065,3,0.63949,1,0.8126
7,3,77,197,3.0,0.34994,2.3698,2,0.96696,0,0.81823
7,3,78,198,1.5,0.43428,1.7586,3,1.4987,0,0.63975
7,3,79,199,3.0,0.50381,3.0364,2,0.9772,1,0.8787
7,3,80,200,3.0,0.91233,2.1179,2,0.96559,0,0.67897
7,3,81,201,1.5,0.39581,1.7448,3,0.77242,1,0.68758
7,3,82,202,1.5,0.51797,1.5952,3,0.61077,1,0.85443
7,3,83,203,1.5,0.55559,1.8742,3,0.69795,0,1.1668
7,3,84,204,3.0,0.43732,1.8494,3,0.73938,0,1.4491
7,3,85,205,3.0,0.92716,2.7406,2,1.095,0,0.69165
7,3,86,206,3.0,0.5056,3.1241,2,0.86881,1,1.7453
7,3,87,207,3.0,0.42157,2.3499,2,0.86348,0,2.6528
7,3,88,208,3.0,0.38314,2.1939,3,0.67611,0,0.78996
7,3,89,209,1.5,0.42282,1.3259,3,0.67664,1,1.353
7,3,90,210,3.0,0.38365,2.2324,2,0.95086,0,0.83134
8,3,1,121,1.5,0.7098,1.5029,1,0.88185,0,0.31643
8,3,2,122,3.0,0.39275,3.5916,2,1.494,1,0.41375
8,3,3,123,3.0,0.27026,2.7608,2,0.8118,1,0.13819
8,3,4,124,3.0,0.31632,3.4445,2,0.59731,1,0.166
8,3,5,125,1.5,0.71798,1.3316,3,0.853,0,0.12124
8,3,6,126,1.5,0.76508,1.0675,1,1.6432,0,0.63769
8,3,7,127,1.5,0.40252,1.4335,3,1.5428,1,1.0995
8,3,8,128,1.5,0.40801,1.7408,3,0.87237,1,0.1742
8,3,9,129,3.0,0.34299,2.6168,2,1.1999,1,0.15488
8,3,10,130,3.0,0.25137,3.5847,2,0.86187,1,0.81216
8,3,11,131,3.0,0.60784,2.4141,1,1.0615,0,0.66623
8,3,12,132,3.0,0.34746,3.1557,2,1.3786,0,0.59116
8,3,13,133,1.5,0.56567,1.3428,3,0.93883,0,0.1862
8,3,14,134,1.5,0.5645,1.18,3,1.0766,0,0.23956
8,3,15,135,1.5,0.44342,1.6418,2,1.3365,0,0.40856
8,3,16,136,1.5,0.52549,2.0035,3,0.93053,1,0.97712
8,3,17,137,1.5,0.90114,2.1822,2,0.96349,0,0.32766
8,3,18,138,3.0,0.3357,2.7723,2,0.18078,1,0.31676
8,3,19,139,3.0,0.28764,3.7751,2,0.93041,0,0.46507
8,3,20,140,3.0,0.85762,3.4016,2,0.487,1,1.1096
8,3,21,141,1.5,0.63045,1.495,3,0.93598,1,0.74698
8,3,22,142,3.0,1.2704,3.2465,3,0.83651,0,0.80895
8,3,23,143,1.5,0.88252,2.1164,3,0.52697,1,0.44266
8,3,24,144,1.5,0.60604,1.9495,2,1.7528,0,0.31759
8,3,25,145,3.0,0.43479,2.2832,2,1.6509,1,0.77964
8,3,26,146,1.5,0.47981,1.2198,1,1.8958,0,0.15024
8,3,27,147,1.5,0.39923,2.3814,2,1.1001,1,0.2166
8,3,28,148,1.5,0.44302,1.3923,2,0.72508,0,0.17664
8,3,29,149,1.5,0.37076,2.2864,2,1.8181,0,0.29138
8,3,30,150,1.5,0.92343,1.7999,3,1.2405,0,2.036
8,3,31,151,1.5,0.47317,1.1875,2,1.5217,0,0.4211
8,3,32,152,1.5,0.60223,1.2325,3,0.66708,0,0.382
8,3,33,153,3.0,0.42742,2.5058,3,0.23136,1,0.21832
8,3,34,154,3.0,0.28681,2.9605,1,1.1359,0,0.30698
8,3,35,155,3.0,0.25628,3.5767,2,1.2827,1,0.14121
8,3,36,156,3.0,0.49354,2.4795,2,3.5132,1,0.18642
8,3,37,157,1.5,0.46042,0.97994,3,1.9395,0,0.097069
8,3,38,158,3.0,0.29529,3.0701,2,0.22684,1,1.8762
8,3,39,159,1.5,0.78134,1.4835,2,3.2543,0,0.54095
8,3,40,160,1.5,0.51153,1.4434,3,2.3877,0,1.3195
8,3,41,161,3.0,0.33785,2.7618,3,1.9126,1,0.48928
8,3,42,162,1.5,0.44364,1.6051,3,2.5211,0,0.30581
8,3,43,163,1.5,2.0716,2.4322,2,2.9375,1,1.3907
8,3,44,164,3.0,0.50587,2.3631,3,4.1645,1,0.43479
8,3,45,165,1.5,0.65357,0.95957,3,2.4775,0,0.19977
8,3,46,166,3.0,0.33472,2.7333,2,1.4749,0,0.21272
8,3,47,167,1.5,0.79826,1.3299,2,2.3635,1,0.15075
8,3,48,168,1.5,0.54586,1.6199,3,3.3188,1,0.68015
8,3,49,169,1.5,0.48804,1.637,3,1.5325,0,1.2268
8,3,50,170,3.0,0.24589,2.8577,2,3.4699,1,0.72591
8,3,51,171,3.0,0.70821,3.7896,2,0.17933,1,1.8035
8,3,52,172,1.5,0.80525,2.7862,3,1.2651,1,0.68998
8,3,53,173,3.0,0.28403,2.4207,1,1.6921,0,1.4366
8,3,54,174,3.0,0.63275,2.6799,2,9.051,0,0.52926
8,3,55,175,1.5,0.44554,1.8069,2,2.6351,1,1.1901
8,3,56,176,1.5,4.6385,2.7529,1,0.49173,0,1.1153
8,3,57,177,1.5,0.62651,1.4414,3,0.48767,0,1.6352
8,3,58,178,1.5,0.58889,2.0872,3,1.256,1,0.32293
8,3,59,179,3.0,0.24472,0.25735,1,4.2604,0,2.593
8,3,60,180,3.0,1.2467,3.067,2,1.8382,0,1.0069
8,3,61,181,3.0,0.44646,2.8824,3,1.6032,1,0.33124
8,3,62,182,3.0,0.35344,3.1483,2,0.82541,1,0.94038
8,3,63,183,3.0,0.55234,1.7463,3,1.4003,0,2.0411
8,3,64,184,1.5,0.6965,2.0197,3,1.5065,1,1.1341
8,3,65,185,3.0,0.81244,2.2442,3,4.7496,1,0.92252
8,3,66,186,1.5,0.59628,1.7456,3,1.3144,1,1.1657
8,3,67,187,3.0,0.28101,1.8799,2,1.3753,1,0.94993
8,3,68,188,3.0,1.0585,2.3888,2,2.2687,0,3.091
8,3,69,189,1.5,0.57263,1.7504,3,1.8658,1,2.3772
8,3,70,190,3.0,0.51171,2.9559,2,2.3057,0,1.5827
8,3,71,191,3.0,0.48452,2.4201,3,1.9922,1,0.76153
8,3,72,192,3.0,0.29447,2.5193,3,1.153,0,0.68361
8,3,73,193,3.0,0.35849,2.3036,1,2.2927,0,0.76065
8,3,74,194,3.0,0.52955,2.9821,2,1.3728,1,0.62217
8,3,75,195,3.0,0.49486,3.9306,1,1.798,0,0.62668
8,3,76,196,1.5,0.6474,1.0449,3,1.3378,1,0.65948
8,3,77,197,1.5,0.47629,1.7902,2,1.4232,0,0.56076
8,3,78,198,3.0,0.27067,1.7494,2,2.5152,0,0.54036
8,3,79,199,3.0,0.29232,2.6782,3,1.4749,1,0.67415
8,3,80,200,1.5,0.6257,2.439,2,1.4079,1,0.9996
8,3,81,201,1.5,0.6197,2.1852,1,3.9155,0,0.92429
8,3,82,202,3.0,0.4007,2.1701,3,0.86806,1,1.0809
8,3,83,203,3.0,0.28654,2.8111,3,0.31136,1,1.0022
8,3,84,204,1.5,0.54005,2.7504,1,0.85135,1,0.50656
8,3,85,205,3.0,0.29142,1.9786,2,1.0971,0,0.78946
8,3,86,206,3.0,1.1682,0.19373,1,0.18941,0,0.18889
8,3,87,207,1.5,0.52467,1.8524,3,0.15582,1,0.13795
8,3,88,208,1.5,0.53968,1.4753,3,1.0378,1,0.37182
8,3,89,209,3.0,0.29402,2.4808,1,2.2608,1,0.21306
8,3,90,210,1.5,1.3729,2.1365,3,1.1048,1,0.18396
9,3,1,121,1.5,0.59564,1.5821,2,4.0391,0,0.23949
9,3,2,122,1.5,0.3579,2.2037,2,0.94233,0,1.539
9,3,3,123,3.0,0.48421,2.4951,2,0.9877,0,0.62266
9,3,4,124,1.5,1.1599,4.1145,2,1.1355,1,0.60711
9,3,5,125,1.5,2.225,5.047,2,3.5074,1,0.82985
9,3,6,126,1.5,0.51331,1.795,2,0.78967,1,0.33809
9,3,7,127,3.0,0.95144,3.2195,2,1.0262,1,0.67675
9,3,8,128,1.5,0.50148,2.9204,2,1.4043,0,0.42094
9,3,9,129,1.5,0.55491,1.124,2,0.80029,0,0.30596
9,3,10,130,3.0,0.34532,2.2685,2,0.89102,0,0.56329
9,3,11,131,1.5,0.69254,1.2907,2,0.76162,0,0.25071
9,3,12,132,1.5,0.39504,1.832,2,1.1019,0,0.28125
9,3,13,133,3.0,0.60667,2.9623,2,0.96176,0,0.69252
9,3,14,134,1.5,0.40634,2.1878,2,0.68192,1,0.36737
9,3,15,135,3.0,0.73358,2.1323,2,1.0135,0,0.48867
9,3,16,136,1.5,0.78108,3.0203,2,2.2033,0,1.2685
9,3,17,137,3.0,0.55775,3.3523,2,0.9753,1,0.66316
9,3,18,138,3.0,0.44523,4.4059,2,0.62614,1,0.61624
9,3,19,139,3.0,0.4172,2.5949,2,1.2246,0,0.80054
9,3,20,140,3.0,0.38636,4.5726,2,0.66346,1,0.51589
9,3,21,141,3.0,0.97476,2.9014,2,0.82665,0,0.69079
9,3,22,142,3.0,0.38371,5.8585,1,0.5988,1,0.44294
9,3,23,143,3.0,0.60244,3.7593,2,0.8683,1,1.095
9,3,24,144,3.0,0.86881,3.5073,2,0.71825,0,0.31963
9,3,25,145,1.5,1.233,4.4665,2,0.87388,1,0.50008
9,3,26,146,3.0,0.59907,3.8938,2,0.55749,1,0.31351
9,3,27,147,3.0,0.37225,3.0,2,0.69939,1,0.46766
9,3,28,148,1.5,0.56387,3.5713,2,0.9023,1,0.32021
9,3,29,149,3.0,1.499,0.89487,2,0.51176,0,0.45278
9,3,30,150,1.5,0.94607,2.006,2,0.83289,0,0.91815
9,3,31,151,1.5,1.7966,2.3669,2,0.48894,1,0.58703
9,3,32,152,1.5,0.48384,1.5075,2,0.62369,0,0.45098
9,3,33,153,3.0,3.4049,4.1079,2,2.103,0,2.2803
9,3,34,154,1.5,1.3123,2.0534,1,2.5063,0,0.69606
9,3,35,155,1.5,0.73667,2.2969,2,1.4986,0,0.66587
9,3,36,156,3.0,0.40562,4.2762,2,0.77945,1,0.75229
9,3,37,157,3.0,1.3605,4.9153,2,0.83308,1,0.50638
9,3,38,158,1.5,1.9717,1.1208,2,1.3211,0,1.3342
9,3,39,159,3.0,1.039,6.6988,2,0.72799,1,1.6261
9,3,40,160,3.0,0.58781,4.2724,2,0.55128,0,1.3333
9,3,41,161,3.0,3.3332,3.8645,2,1.2619,0,0.27871
9,3,42,162,3.0,0.33776,2.7369,2,0.44108,0,0.46428
9,3,43,163,1.5,1.0315,4.5704,2,0.87309,1,0.62516
9,3,44,164,1.5,0.50207,1.7078,2,1.3119,0,0.49094
9,3,45,165,3.0,0.3137,3.2181,2,1.9246,0,0.52261
9,3,46,166,3.0,1.0706,2.6583,1,0.78437,0,0.54502
9,3,47,167,3.0,1.7416,3.5615,2,0.50963,0,0.31613
9,3,48,168,3.0,1.4692,3.4811,2,1.3624,0,1.2678
9,3,49,169,1.5,0.43998,1.8255,2,0.62465,1,0.46428
9,3,50,170,3.0,1.2429,4.3525,2,0.61319,1,0.59094
9,3,51,171,1.5,0.87159,3.2727,2,0.59158,0,1.014
9,3,52,172,3.0,0.3572,3.601,2,2.5748,0,0.88262
9,3,53,173,3.0,0.36366,2.4039,2,1.3293,0,0.57971
9,3,54,174,1.5,0.43415,1.9323,2,2.4649,0,0.52765
9,3,55,175,1.5,0.49348,1.7427,2,0.69943,1,0.38032
9,3,56,176,3.0,0.42095,2.0989,2,1.0882,0,0.51031
9,3,57,177,1.5,0.47763,1.5794,2,0.65065,0,0.50576
9,3,58,178,1.5,0.57584,1.5149,2,0.96507,0,0.42973
9,3,59,179,1.5,0.37446,1.3643,2,0.53958,0,0.28715
9,3,60,180,3.0,0.29494,7.4321,1,1.1391,1,1.011
9,3,61,181,3.0,0.33004,2.9795,2,0.41193,0,0.94014
9,3,62,182,1.5,1.2784,2.0529,2,0.51756,0,0.60788
9,3,63,183,3.0,0.64557,4.0059,2,2.0777,0,0.56382
9,3,64,184,1.5,0.44666,1.8215,2,3.3068,0,0.41863
9,3,65,185,3.0,0.46855,4.0351,3,0.72716,1,2.0535
9,3,66,186,3.0,0.43686,4.2105,2,0.7812,0,1.3909
9,3,67,187,3.0,0.31227,2.3944,2,0.88757,0,0.59741
9,3,68,188,1.5,0.42266,1.2131,2,0.4637,0,0.99091
9,3,69,189,3.0,0.30327,3.9859,2,1.7738,0,1.2221
9,3,70,190,3.0,0.45793,4.8399,2,0.41188,1,0.3898
9,3,71,191,1.5,0.46634,1.5691,2,0.84445,0,0.3538
9,3,72,192,1.5,0.37595,2.191,2,0.79672,0,0.39016
9,3,73,193,1.5,0.14953,0.74509,1,2.4395,0,1.3955
9,3,74,194,1.5,0.44258,1.79,1,0.59789,0,0.49204
9,3,75,195,3.0,0.70422,3.5478,1,0.87453,1,0.76312
9,3,76,196,3.0,0.94545,4.9932,2,0.75373,1,0.84744
9,3,77,197,3.0,0.29878,2.6189,2,0.91509,0,1.9159
9,3,78,198,1.5,0.81994,7.9099,1,2.1491,1,0.38892
9,3,79,199,1.5,0.47742,1.4679,2,0.96746,0,0.69421
9,3,80,200,1.5,0.75741,1.6635,2,0.8994,0,0.50558
9,3,81,201,1.5,0.50141,1.4835,2,0.8666,0,0.50491
9,3,82,202,1.5,0.17659,2.5805,2,2.4611,0,0.32416
9,3,83,203,1.5,0.46603,7.4437,1,1.1888,1,0.6354
9,3,84,204,1.5,0.61833,2.0209,2,1.1196,0,0.283
9,3,85,205,1.5,0.5262,3.5273,2,0.52177,1,0.33641
9,3,86,206,3.0,0.14553,4.2698,2,0.70309,1,0.51035
9,3,87,207,3.0,0.52222,4.0628,2,1.0339,1,0.69231
9,3,88,208,1.5,0.90181,2.1077,2,2.9852,0,0.57527
9,3,89,209,3.0,1.0063,2.2746,2,0.95854,0,0.96388
9,3,90,210,1.5,0.65386,2.3861,2,0.55385,0,0.48527
10,3,1,121,3.0,0.56514,2.5806,2,1.9891,0,0.48404
10,3,2,122,1.5,1.414,1.031,3,0.68958,1,1.3256
10,3,3,123,1.5,0.60639,0.90081,3,0.88067,0,1.0164
10,3,4,124,1.5,0.71176,1.4055,3,1.4963,0,1.7175
10,3,5,125,1.5,1.1747,1.413,3,0.93872,1,1.0737
10,3,6,126,3.0,1.0637,2.1688,2,1.4794,0,0.7783
10,3,7,127,3.0,0.60838,3.2395,2,1.0422,0,1.114
10,3,8,128,1.5,1.0348,2.5573,3,0.85698,1,0.77562
10,3,9,129,3.0,0.6923,2.0901,3,1.7465,0,1.0787
10,3,10,130,1.5,0.89704,1.7435,2,2.1383,0,0.60763
10,3,11,131,1.5,0.8314,1.5466,3,1.4243,1,0.71214
10,3,12,132,3.0,0.55985,4.0921,3,1.293,1,0.42608
10,3,13,133,1.5,0.80271,3.0841,1,2.8751,1,1.5704
10,3,14,134,1.5,0.52069,1.4102,2,1.3395,1,0.38615
10,3,15,135,1.5,0.45254,1.6473,3,0.77634,1,0.60188
10,3,16,136,1.5,0.61243,0.99408,3,1.4993,0,1.1153
10,3,17,137,1.5,0.40234,1.4222,3,1.9836,0,0.42725
10,3,18,138,3.0,0.57433,3.0894,1,1.5554,0,0.85858
10,3,19,139,1.5,1.6419,1.7862,2,0.84366,0,0.7281
10,3,20,140,3.0,0.93376,3.4938,1,2.0581,0,0.2222
10,3,21,141,1.5,0.563,1.607,2,1.8105,0,0.23852
10,3,22,142,1.5,0.50956,2.0405,2,1.2231,1,0.73485
10,3,23,143,1.5,0.43076,1.8539,3,1.0073,0,0.43694
10,3,24,144,3.0,0.72832,2.2677,3,1.5529,0,0.46871
10,3,25,145,3.0,0.46851,2.9842,2,2.3625,0,1.5764
10,3,26,146,3.0,0.509,1.9901,3,1.1347,1,0.83175
10,3,27,147,1.5,0.51071,1.0555,3,0.9478,0,0.49108
10,3,28,148,1.5,0.3957,1.1578,2,3.1497,0,1.2281
10,3,29,149,3.0,1.2783,2.9659,1,1.2745,0,0.61282
10,3,30,150,1.5,0.8553,2.1986,2,1.4878,1,0.87057
10,3,31,151,3.0,0.45877,2.6145,3,1.662,0,0.66429
10,3,32,152,1.5,0.63639,1.5475,2,1.7753,1,0.93721
10,3,33,153,1.5,0.90006,1.2931,3,2.289,0,1.2451
10,3,34,154,3.0,1.0635,2.607,3,2.2193,1,1.4166
10,3,35,155,1.5,0.636,1.3466,3,1.7767,0,1.0374
10,3,36,156,1.5,0.42949,1.544,3,1.1138,0,0.69071
10,3,37,157,1.5,0.46497,1.4303,3,1.4646,0,0.52653
10,3,38,158,3.0,0.73866,2.6866,3,1.7653,1,0.61508
10,3,39,159,3.0,0.84866,3.3036,1,1.315,1,0.67816
10,3,40,160,1.5,0.67708,1.0662,3,1.1057,0,0.72286
10,3,41,161,3.0,0.79505,2.5301,2,1.4142,0,0.52682
10,3,42,162,3.0,0.78439,3.2323,3,1.3772,0,0.78939
10,3,43,163,1.5,0.45153,1.7586,2,0.92349,0,0.57515
10,3,44,164,3.0,0.89216,3.8139,3,1.1369,1,0.65824
10,3,45,165,1.5,0.64227,1.639,2,0.90945,1,0.75242
10,3,46,166,1.5,0.47989,1.5825,2,1.4274,1,0.80277
10,3,47,167,3.0,0.75281,3.0341,2,1.4628,0,0.704
10,3,48,168,3.0,0.38344,2.983,3,1.1484,1,0.57888
10,3,49,169,3.0,0.50384,3.2226,3,1.1546,1,1.3726
10,3,50,170,3.0,0.36068,2.7549,3,1.0922,0,0.62688
10,3,51,171,3.0,0.32686,2.8173,2,1.2499,1,0.88002
10,3,52,172,3.0,0.25084,2.9707,2,0.97779,0,1.0424
10,3,53,173,3.0,0.37733,3.0798,3,1.2254,0,0.9377
10,3,54,174,3.0,0.3089,2.7146,3,1.3621,1,0.81656
10,3,55,175,1.5,0.43908,1.5127,2,0.75025,0,0.61764
10,3,56,176,3.0,0.67357,3.1124,3,1.8742,1,1.1597
10,3,57,177,1.5,0.42537,1.9034,1,1.1182,0,0.6935
10,3,58,178,1.5,0.59039,1.4129,2,0.80056,0,1.4942
10,3,59,179,3.0,0.34479,2.7443,3,1.1114,0,0.75344
10,3,60,180,1.5,0.33328,1.7577,3,1.2486,1,0.66539
10,3,61,181,1.5,0.48179,1.7305,2,0.82524,0,0.67712
10,3,62,182,3.0,0.39426,2.6053,3,1.5431,0,0.51314
10,3,63,183,3.0,0.48514,2.4588,1,1.0345,0,0.66937
10,3,64,184,3.0,0.62237,3.5121,1,0.8104,1,0.45366
10,3,65,185,3.0,0.51805,3.246,3,1.0862,1,0.29535
10,3,66,186,1.5,0.71248,1.1193,2,0.90694,0,0.96317
10,3,67,187,1.5,0.83661,1.7713,3,1.5833,1,0.9654
10,3,68,188,1.5,0.50184,1.5078,3,1.2241,0,0.36216
10,3,69,189,3.0,0.82828,3.5295,2,1.124,1,0.61207
10,3,70,190,3.0,0.60228,3.4718,2,0.92871,1,0.22543
10,3,71,191,3.0,0.54745,2.7451,3,0.91287,0,0.50161
10,3,72,192,3.0,0.67231,2.6498,1,1.1503,1,1.168
10,3,73,193,3.0,0.62126,2.0861,3,1.0174,1,0.5184
10,3,74,194,3.0,0.37298,2.9886,2,1.5928,1,0.26241
10,3,75,195,1.5,0.48489,1.1335,2,1.8291,0,1.002
10,3,76,196,3.0,0.34817,2.8173,3,1.4257,0,1.3
10,3,77,197,3.0,0.29415,3.5938,2,0.36936,1,0.47298
10,3,78,198,3.0,0.37446,2.6522,2,1.1278,1,0.41542
10,3,79,199,1.5,0.47542,1.3786,3,1.2234,0,0.68758
10,3,80,200,1.5,0.38262,1.3062,3,1.2724,0,0.51135
10,3,81,201,1.5,0.3074,1.1145,3,1.0909,1,0.42445
10,3,82,202,3.0,0.50548,2.5744,3,1.3713,0,0.5463
10,3,83,203,1.5,0.41386,1.3664,3,1.2283,0,0.5166
10,3,84,204,1.5,0.35861,1.3662,2,1.1795,0,0.67473
10,3,85,205,3.0,0.44613,2.4958,3,0.68809,1,0.57359
10,3,86,206,1.5,0.29993,1.1075,2,1.449,0,0.76637
10,3,87,207,1.5,0.52504,1.6412,3,1.2977,1,0.5898
10,3,88,208,3.0,0.47187,4.1748,1,0.82892,1,0.38788
10,3,89,209,3.0,0.46723,2.8464,3,1.3254,1,0.57521
10,3,90,210,1.5,0.55033,2.0561,3,1.2335,0,0.8054
11,3,1,121,3.0,0.41665,3.3193,3,1.3759,1,1.0761
11,3,2,122,1.5,0.5562,1.0624,2,0.97662,0,0.60276
11,3,3,123,1.5,0.34866,2.1439,3,0.91265,0,1.0006
11,3,4,124,3.0,0.35556,4.863,2,0.98221,1,0.61639
11,3,5,125,3.0,0.34192,4.303,2,0.98641,1,1.4079
11,3,6,126,1.5,0.88601,1.6086,1,1.1488,0,0.8172
11,3,7,127,1.5,0.35715,1.8773,3,0.83842,1,1.8612
11,3,8,128,3.0,0.33245,3.0815,3,0.71319,1,0.71522
11,3,9,129,3.0,0.42024,3.5239,2,1.0673,0,0.64263
11,3,10,130,3.0,0.34773,3.6058,1,1.4781,1,0.6133
11,3,11,131,1.5,0.38605,1.2472,1,1.065,1,0.59014
11,3,12,132,3.0,0.32851,4.1448,2,1.6326,1,2.365
11,3,13,133,3.0,0.3694,4.184,2,1.4135,1,0.67639
11,3,14,134,1.5,0.42122,2.1502,2,0.70148,0,0.53299
11,3,15,135,1.5,0.38048,1.7674,3,0.8777,1,1.6804
11,3,16,136,1.5,0.39508,2.1808,2,0.78607,1,0.57227
11,3,17,137,1.5,0.41492,2.6423,1,2.9971,0,0.86411
11,3,18,138,3.0,0.36317,3.4956,1,1.222,0,1.048
11,3,19,139,3.0,0.39768,4.5168,3,1.0491,1,1.3919
11,3,20,140,1.5,0.69105,1.476,3,0.85032,0,0.86948
11,3,21,141,1.5,1.0818,1.9447,2,1.0023,1,0.56915
11,3,22,142,3.0,0.50444,3.7979,1,1.1871,1,0.57164
11,3,23,143,3.0,0.36083,3.7438,1,1.0698,1,0.53282
11,3,24,144,1.5,0.39512,1.2307,2,1.3276,0,0.61579
11,3,25,145,3.0,0.43235,3.9312,2,0.82382,1,0.53825
11,3,26,146,3.0,0.31803,3.1343,2,1.625,0,4.3111
11,3,27,147,1.5,0.37994,1.1702,1,1.2087,0,0.58849
11,3,28,148,1.5,0.30639,1.914,2,1.0253,0,0.5762
11,3,29,149,3.0,0.38861,3.2138,3,0.98686,1,1.3586
11,3,30,150,1.5,0.37056,2.6361,3,0.82859,1,0.96343
11,3,31,151,3.0,0.55418,5.6729,1,1.1016,1,0.56914
11,3,32,152,1.5,0.29981,2.0445,3,0.82573,0,0.53896
11,3,33,153,1.5,0.27052,1.9117,2,1.1641,1,0.87709
11,3,34,154,1.5,0.31098,1.5193,3,0.88103,1,0.9653
11,3,35,155,3.0,0.44606,2.9062,3,0.58159,1,0.57892
11,3,36,156,3.0,0.50543,3.7622,3,0.74723,1,1.1154
11,3,37,157,1.5,0.44006,2.4636,2,0.87615,0,0.60369
11,3,38,158,1.5,0.50137,2.1445,2,1.2516,0,0.48082
11,3,39,159,3.0,0.37403,3.8276,3,2.4704,0,1.2039
11,3,40,160,1.5,0.36544,1.6316,1,0.6515,1,0.50751
11,3,41,161,1.5,0.35966,1.7166,2,0.65356,0,0.57202
11,3,42,162,3.0,0.36091,3.9938,1,0.80738,1,0.53788
11,3,43,163,1.5,0.47984,2.283,2,1.5514,0,0.60457
11,3,44,164,3.0,0.44806,3.8681,2,1.2989,1,0.61513
11,3,45,165,1.5,0.3695,1.8979,3,0.67555,0,1.5904
11,3,46,166,1.5,0.4017,1.5831,3,0.9032,1,0.75971
11,3,47,167,1.5,0.45999,2.3298,3,0.69676,0,0.7157
11,3,48,168,1.5,0.31381,2.192,3,0.64781,1,0.64182
11,3,49,169,1.5,0.42209,2.0873,2,1.1933,0,9.2276
11,3,50,170,3.0,0.3288,3.8323,1,1.4006,1,0.65391
11,3,51,171,1.5,0.32956,2.1704,3,0.93045,0,0.62812
11,3,52,172,3.0,0.33655,3.0986,3,0.88587,0,1.983
11,3,53,173,3.0,0.44108,3.9407,1,1.0032,1,0.57122
11,3,54,174,3.0,0.41843,4.2212,1,1.3743,1,0.82511
11,3,55,175,3.0,0.40655,2.8761,3,0.94664,0,1.5521
11,3,56,176,3.0,0.42427,4.7157,2,2.422,1,1.7064
11,3,57,177,3.0,0.42295,4.2129,1,1.0215,1,0.96001
11,3,58,178,1.5,0.35852,1.6284,3,0.95338,0,0.64637
11,3,59,179,3.0,0.4476,3.7166,3,2.439,0,2.3446
11,3,60,180,3.0,0.58632,3.4222,1,1.278,0,1.6529
11,3,61,181,3.0,0.75001,3.7937,3,1.9201,1,2.7059
11,3,62,182,1.5,0.41793,1.9089,2,1.0489,0,1.0795
11,3,63,183,3.0,0.31874,3.2965,1,2.5246,1,0.94675
11,3,64,184,1.5,0.36637,2.9933,1,1.2218,1,0.76101
11,3,65,185,3.0,0.34892,4.0935,1,1.706,1,0.73408
11,3,66,186,3.0,0.35676,4.689,3,1.0128,0,1.0639
11,3,67,187,1.5,0.39935,1.5065,1,1.4361,0,1.3186
11,3,68,188,1.5,1.8226,2.659,2,1.5352,0,0.58004
11,3,69,189,1.5,0.397,2.0916,3,1.2989,1,0.76583
11,3,70,190,1.5,0.31247,2.4068,2,1.3077,1,0.94985
11,3,71,191,1.5,0.33735,1.8249,3,0.80983,0,2.5284
11,3,72,192,3.0,0.35357,3.6226,3,1.0287,0,1.2054
11,3,73,193,3.0,0.31627,3.6066,1,0.94204,1,0.68986
11,3,74,194,1.5,0.33447,3.2586,1,1.1693,1,0.84546
11,3,75,195,3.0,0.37214,4.788,2,1.0488,0,1.1536
11,3,76,196,3.0,0.57255,4.3376,3,0.87494,1,0.61404
11,3,77,197,1.5,0.44572,1.8824,1,0.82611,0,0.47688
11,3,78,198,3.0,0.32564,3.0777,2,0.94826,1,0.5542
11,3,79,199,1.5,0.58632,2.647,2,1.0647,0,0.55376
11,3,80,200,3.0,0.40846,4.2023,3,0.76354,1,0.56647
11,3,81,201,1.5,0.63754,3.3609,1,1.2341,0,0.49255
11,3,82,202,1.5,0.8195,3.0337,2,1.1239,0,0.97487
11,3,83,203,1.5,0.33696,2.6111,2,1.3234,1,0.58653
11,3,84,204,3.0,0.3285,4.1073,2,1.3782,1,0.85275
11,3,85,205,3.0,0.44434,3.7805,3,0.97357,0,1.4377
11,3,86,206,3.0,0.46066,3.9933,2,1.2183,1,1.7698
11,3,87,207,1.5,0.46049,2.4672,2,0.6146,1,0.44103
11,3,88,208,3.0,0.3346,4.6079,3,0.75319,0,0.53387
11,3,89,209,3.0,0.33206,3.893,1,0.96952,0,0.47032
11,3,90,210,1.5,0.48846,0.39948,1,2.3194,0,0.67921
12,3,1,121,3.0,0.44727,2.2415,2,1.3354,0,0.39355
12,3,2,122,3.0,0.34495,2.3181,2,1.4533,1,1.1569
12,3,3,123,1.5,0.61061,0.89206,3,1.1763,1,3.1413
12,3,4,124,3.0,0.51701,2.9185,2,0.85219,1,1.6823
12,3,5,125,1.5,0.52695,1.1295,3,1.2013,1,3.2061
12,3,6,126,1.5,0.49483,1.481,3,1.4016,0,4.6806
12,3,7,127,1.5,0.56966,1.4847,2,3.3807,1,1.1241
12,3,8,128,1.5,0.39074,1.3017,3,0.79359,0,2.0544
12,3,9,129,3.0,0.44562,3.432,3,0.50145,0,1.5706
12,3,10,130,3.0,0.34313,2.5432,2,0.87261,0,1.1486
12,3,11,131,3.0,0.36946,2.5462,1,1.327,0,1.0636
12,3,12,132,1.5,0.41655,1.2323,3,0.70244,0,3.2099
12,3,13,133,1.5,0.41327,1.3957,3,0.51324,1,1.0777
12,3,14,134,3.0,0.27277,2.8129,2,1.3888,1,0.58431
12,3,15,135,1.5,0.58538,1.1582,3,0.72555,1,1.1778
12,3,16,136,1.5,0.59488,1.1677,2,1.0057,0,0.46192
12,3,17,137,1.5,0.30886,1.3149,3,0.47917,1,1.2894
12,3,18,138,3.0,0.37151,2.349,1,0.80092,0,0.83198
12,3,19,139,3.0,0.3524,2.0973,2,0.63586,0,1.0598
12,3,20,140,3.0,0.31011,2.5039,1,0.50525,1,0.62427
12,3,21,141,1.5,0.38047,1.2787,1,1.4507,1,0.77951
12,3,22,142,1.5,0.31755,1.1706,2,1.0712,1,1.3969
12,3,23,143,3.0,1.0957,2.7179,1,1.1515,1,0.65554
12,3,24,144,1.5,0.30197,1.2476,2,0.85149,1,0.79547
12,3,25,145,1.5,0.35542,1.1122,3,0.78755,1,1.3604
12,3,26,146,3.0,0.34288,3.1791,2,0.7482,0,1.5424
12,3,27,147,1.5,0.35281,1.2611,2,0.91054,0,1.8787
12,3,28,148,1.5,0.51885,1.1081,3,0.57584,1,0.91601
12,3,29,149,3.0,0.38636,2.8973,2,0.73971,0,1.0116
12,3,30,150,1.5,0.38661,1.2606,3,0.50225,1,0.93412
12,3,31,151,1.5,1.7709,0.94482,1,0.73754,0,0.37263
12,3,32,152,3.0,0.52056,2.2361,1,1.6292,0,0.37804
12,3,33,153,1.5,0.43058,1.2412,3,1.5626,1,1.842
12,3,34,154,3.0,0.2931,2.3416,3,1.7465,0,1.7672
12,3,35,155,3.0,0.27867,2.4822,2,0.54888,1,0.73084
12,3,36,156,1.5,0.35647,1.2251,2,1.1391,1,1.1355
12,3,37,157,1.5,0.39377,1.3184,2,1.0179,1,1.0944
12,3,38,158,3.0,0.311,3.0312,2,1.2254,1,2.0897
12,3,39,159,3.0,0.31998,2.1977,2,0.87504,0,1.6261
12,3,40,160,3.0,0.31112,2.7567,1,0.46892,1,0.70858
12,3,41,161,3.0,0.38957,2.8757,3,0.40933,1,0.82902
12,3,42,162,1.5,0.82034,1.0722,3,0.73567,0,1.8835
12,3,43,163,1.5,0.35086,1.321,3,0.97079,1,0.72244
12,3,44,164,3.0,0.34391,3.1934,1,2.6468,0,0.43806
12,3,45,165,1.5,0.44492,1.2188,3,0.84365,1,1.4172
12,3,46,166,3.0,0.30712,2.7766,1,0.648,1,1.1665
12,3,47,167,1.5,0.49157,1.3145,2,1.2033,0,3.2945
12,3,48,168,3.0,0.297,2.3163,1,1.6509,1,1.655
12,3,49,169,3.0,0.34533,2.3435,2,2.3488,1,1.6547
12,3,50,170,3.0,0.36041,2.9799,3,0.83793,1,0.935
12,3,51,171,1.5,0.3512,1.159,3,0.28901,0,0.89996
12,3,52,172,3.0,0.28061,3.4047,1,1.0653,1,0.69057
12,3,53,173,3.0,0.33738,2.4234,2,1.3463,0,1.455
12,3,54,174,1.5,0.33509,1.3723,1,1.8217,1,1.6842
12,3,55,175,3.0,0.33969,2.7515,2,2.9009,1,0.74309
12,3,56,176,1.5,0.38191,1.0303,3,0.45242,0,1.6346
12,3,57,177,3.0,0.33646,3.0484,2,0.96379,1,0.99089
12,3,58,178,3.0,0.35688,2.4775,3,2.4486,1,0.99108
12,3,59,179,3.0,0.3957,2.8076,3,0.65684,0,1.414
12,3,60,180,3.0,0.47829,2.7065,2,0.89468,1,0.929
12,3,61,181,1.5,0.36466,1.2924,3,1.2131,1,0.7885
12,3,62,182,1.5,0.26921,1.2985,3,0.5902,1,0.70094
12,3,63,183,1.5,0.38893,1.2117,3,0.93711,0,0.7471
12,3,64,184,1.5,0.30186,1.3593,3,0.92616,1,2.6888
12,3,65,185,3.0,0.32214,2.6129,2,1.6757,0,0.79951
12,3,66,186,3.0,0.35095,3.1337,1,0.71164,1,1.1884
12,3,67,187,1.5,0.6621,1.1937,3,2.6028,0,1.3527
12,3,68,188,3.0,0.33757,2.4374,2,0.66771,0,2.9571
12,3,69,189,3.0,0.33188,2.7934,1,0.39735,1,1.3671
12,3,70,190,1.5,0.41539,0.99316,3,0.86101,0,1.4663
12,3,71,191,1.5,0.31022,1.2053,3,0.82294,1,1.2118
12,3,72,192,1.5,0.32804,1.0685,2,1.2702,1,0.99602
12,3,73,193,3.0,0.37079,3.3232,1,0.70483,1,0.8368
12,3,74,194,1.5,0.32376,1.3147,2,0.6768,0,2.3673
12,3,75,195,1.5,0.35972,1.5296,3,2.0991,1,0.55193
12,3,76,196,1.5,0.31968,1.5851,3,1.3559,1,0.78498
12,3,77,197,3.0,0.32748,3.4049,3,0.77833,0,1.7513
12,3,78,198,1.5,0.49819,0.93088,3,0.82831,0,0.29956
12,3,79,199,3.0,0.35568,2.7251,1,0.64601,1,1.2152
12,3,80,200,3.0,0.30603,2.4254,2,0.93523,0,1.0579
12,3,81,201,3.0,0.39888,2.1066,2,1.3583,1,4.6503
12,3,82,202,3.0,0.28425,3.2218,1,1.6916,1,0.93669
12,3,83,203,3.0,0.45625,2.6257,2,0.44734,0,1.117
12,3,84,204,3.0,0.47444,2.7777,3,0.49858,1,0.79243
12,3,85,205,1.5,0.37303,1.0891,2,0.81059,0,1.079
12,3,86,206,1.5,0.35693,1.2762,3,2.1394,0,1.2329
12,3,87,207,1.5,0.28702,1.2483,3,1.5403,1,0.9612
12,3,88,208,1.5,0.32225,1.1881,3,0.80994,0,0.91587
12,3,89,209,1.5,0.32126,1.1867,3,2.9454,1,0.46251
12,3,90,210,3.0,0.42138,3.0495,1,1.3785,1,1.1158
13,3,1,121,3.0,1.0905,3.2872,3,2.5031,0,2.5532
13,3,2,122,3.0,0.84375,3.7662,2,1.1382,1,0.93541
13,3,3,123,3.0,0.58781,2.5112,2,1.2003,0,0.95415
13,3,4,124,1.5,0.54917,1.2556,3,1.2347,0,1.8186
13,3,5,125,3.0,0.62919,3.5449,2,1.1334,1,2.0796
13,3,6,126,1.5,0.79524,0.96807,3,1.3185,0,0.89393
13,3,7,127,3.0,0.50488,3.8749,2,1.029,1,0.81348
13,3,8,128,1.5,0.63381,0.89434,3,1.0259,0,0.75059
13,3,9,129,1.5,0.58335,1.5313,3,0.9642,0,1.416
13,3,10,130,1.5,0.58484,1.2711,3,3.7963,0,1.1351
13,3,11,131,3.0,0.55301,2.81,2,1.1975,1,0.87684
13,3,12,132,3.0,0.66696,2.6686,3,1.0643,0,0.92867
13,3,13,133,3.0,0.95126,6.683,1,1.1535,1,2.5721
13,3,14,134,1.5,1.1223,1.4104,3,1.2479,0,0.79019
13,3,15,135,3.0,0.69224,2.9519,3,2.089,1,3.7709
13,3,16,136,1.5,0.72094,1.6603,3,3.113,0,0.95083
13,3,17,137,1.5,0.59428,1.3562,3,1.9842,0,1.2662
13,3,18,138,1.5,0.5022,1.0978,3,1.0892,0,1.0118
13,3,19,139,1.5,0.47299,1.1637,2,3.9509,0,2.6892
13,3,20,140,1.5,0.48773,1.6124,2,0.99925,1,1.0163
13,3,21,141,3.0,0.6589,2.1531,3,1.3556,1,0.97147
13,3,22,142,3.0,0.56524,2.2928,2,5.1236,1,2.1666
13,3,23,143,1.5,0.91001,1.34,3,1.6366,0,0.38198
13,3,24,144,3.0,0.49787,2.1555,3,1.6828,0,0.40248
13,3,25,145,1.5,0.48967,1.2253,3,3.6385,0,0.965
13,3,26,146,3.0,0.54934,2.8807,2,1.0386,1,1.1982
13,3,27,147,3.0,0.48706,2.3366,3,1.0539,0,0.99723
13,3,28,148,3.0,0.55853,2.7025,2,1.2161,1,3.6159
13,3,29,149,1.5,0.54855,1.1682,3,1.0674,0,0.74372
13,3,30,150,3.0,0.57688,3.117,2,1.2487,1,0.45286
13,3,31,151,1.5,0.54524,1.3934,3,1.1397,0,0.94767
13,3,32,152,3.0,0.44707,3.304,2,1.4023,1,0.90706
13,3,33,153,1.5,0.83698,1.1976,3,1.0646,0,0.62747
13,3,34,154,1.5,0.52176,0.9982,3,1.016,0,0.7556
13,3,35,155,3.0,0.57634,3.24,2,1.0304,1,0.57736
13,3,36,156,1.5,0.54916,1.3068,3,1.2724,0,0.54814
13,3,37,157,1.5,0.70196,1.1835,3,1.3801,1,2.0009
13,3,38,158,3.0,0.52547,2.2659,3,1.0503,0,2.3182
13,3,39,159,1.5,0.5557,1.3378,3,1.0718,0,0.65937
13,3,40,160,3.0,0.58012,2.8213,3,1.091,1,0.91317
13,3,41,161,3.0,0.58302,2.6306,3,1.0146,0,2.0781
13,3,42,162,3.0,0.65397,2.9607,2,0.92262,1,0.88663
13,3,43,163,3.0,0.57317,2.8135,2,2.5502,0,2.213
13,3,44,164,3.0,0.81882,1.9322,3,1.1142,0,0.55295
13,3,45,165,3.0,0.59475,2.5056,2,1.0068,1,1.8372
13,3,46,166,1.5,0.62098,1.3104,3,1.2393,1,1.8732
13,3,47,167,1.5,0.55819,0.76509,3,1.0177,0,0.75602
13,3,48,168,3.0,0.54282,3.6276,2,1.3221,1,2.6724
13,3,49,169,1.5,0.50878,1.3906,3,1.2741,1,2.0872
13,3,50,170,1.5,0.8099,1.3278,3,0.9491,0,2.0054
13,3,51,171,1.5,0.57611,1.0778,3,0.73769,0,0.58479
13,3,52,172,3.0,0.60537,2.4875,3,1.6421,1,1.0881
13,3,53,173,1.5,0.54587,1.232,3,0.99043,0,0.7493
13,3,54,174,3.0,0.74236,2.1651,3,1.1129,0,1.8259
13,3,55,175,3.0,0.63701,1.9851,3,0.95415,0,2.3095
13,3,56,176,3.0,0.58342,2.1058,2,2.2456,1,3.5636
13,3,57,177,1.5,2.0841,2.9944,2,1.6987,1,4.5509
13,3,58,178,3.0,0.54,2.7639,3,2.5509,0,1.8887
13,3,59,179,3.0,0.63766,3.1117,3,1.2219,1,1.2111
13,3,60,180,3.0,0.55907,3.1914,2,1.5813,1,0.90271
13,3,61,181,1.5,0.67081,1.0849,3,1.1188,1,2.0704
13,3,62,182,3.0,0.78325,2.4677,2,1.0154,0,3.1539
13,3,63,183,3.0,0.53395,2.3938,2,1.3997,1,0.62903
13,3,64,184,1.5,1.0697,1.5714,2,1.4346,0,3.2536
13,3,65,185,3.0,5.2214,2.9633,2,1.2125,0,3.4304
13,3,66,186,1.5,0.57872,1.2562,3,1.1102,0,0.73936
13,3,67,187,3.0,0.60196,2.1967,3,1.0273,0,1.6539
13,3,68,188,3.0,0.49848,3.2301,3,1.9382,1,2.4945
13,3,69,189,3.0,1.859,2.7498,2,1.1498,0,3.2922
13,3,70,190,1.5,1.086,1.634,2,1.0788,0,0.86717
13,3,71,191,3.0,0.55795,2.6653,3,1.2104,1,2.0654
13,3,72,192,1.5,0.6031,1.7349,3,1.2304,0,0.75083
13,3,73,193,1.5,0.64616,0.9814,3,0.90446,0,0.69635
13,3,74,194,1.5,0.47205,1.3623,3,2.3009,1,2.2387
13,3,75,195,1.5,0.65125,1.1944,3,1.662,1,0.62707
13,3,76,196,1.5,0.27358,1.3645,3,0.93944,0,1.9119
13,3,77,197,1.5,0.57377,1.5006,2,1.0672,1,3.1309
13,3,78,198,1.5,0.57833,1.1056,3,1.0724,0,2.4982
13,3,79,199,3.0,3.2927,4.2094,2,4.0173,1,1.9012
13,3,80,200,1.5,0.62969,1.3316,3,0.99084,0,0.52474
13,3,81,201,3.0,0.5769,2.3556,2,1.0181,1,0.5329
13,3,82,202,1.5,1.4114,1.6902,2,1.1593,0,1.1279
13,3,83,203,1.5,0.63735,1.3233,3,0.91112,0,0.77848
13,3,84,204,3.0,0.45752,2.4522,2,1.5023,0,3.3191
13,3,85,205,3.0,0.76843,2.3576,3,0.93278,0,2.9188
13,3,86,206,3.0,0.46785,2.0212,3,1.2313,0,0.71532
13,3,87,207,1.5,0.5534,0.97253,2,1.1855,0,0.61881
13,3,88,208,1.5,0.47505,1.4155,3,0.99016,0,2.9245
13,3,89,209,1.5,0.64295,1.1656,3,2.8791,0,1.1378
13,3,90,210,1.5,0.3003,1.4583,2,1.0624,1,0.61324
14,3,1,121,1.5,0.63983,1.601,2,0.74077,0,2.8389
14,3,2,122,3.0,0.67312,3.0998,2,1.6783,1,4.5884
14,3,3,123,1.5,4.1493,1.8371,2,4.119,0,4.2894
14,3,4,124,3.0,0.45499,3.2115,2,0.86084,1,2.3166
14,3,5,125,1.5,0.83188,1.4174,2,0.65343,0,0.28557
14,3,6,126,1.5,0.66484,1.7174,3,0.50328,0,1.2604
14,3,7,127,3.0,1.4235,3.512,2,0.8597,1,0.45204
14,3,8,128,3.0,0.43022,3.0086,2,0.40662,1,0.20129
14,3,9,129,1.5,0.44431,2.1311,2,0.79942,0,1.9301
14,3,10,130,3.0,0.36553,3.5309,2,0.75,1,0.13078
14,3,11,131,1.5,0.52879,2.3317,2,0.3865,1,0.36074
14,3,12,132,1.5,0.58637,2.1973,2,0.42761,1,0.65221
14,3,13,133,1.5,0.53448,1.8327,2,0.48981,0,1.2755
14,3,14,134,1.5,0.34938,2.2439,1,2.5506,0,1.2753
14,3,15,135,3.0,0.64981,3.1059,2,0.99287,1,0.52587
14,3,16,136,1.5,0.44501,2.4065,2,0.48193,1,0.25548
14,3,17,137,3.0,0.33514,3.7347,2,0.68995,1,0.21282
14,3,18,138,1.5,0.83117,2.4462,2,0.73816,1,0.19887
14,3,19,139,1.5,0.52564,1.9641,2,0.85118,0,1.2818
14,3,20,140,1.5,0.43121,1.6041,2,0.59623,0,0.16538
14,3,21,141,3.0,0.49903,2.8309,2,0.40043,1,0.10873
14,3,22,142,3.0,0.41024,3.2552,3,0.50369,0,1.6479
14,3,23,143,1.5,0.42471,1.5524,2,0.51899,0,0.10902
14,3,24,144,1.5,0.54801,2.0672,2,0.62817,1,0.18802
14,3,25,145,1.5,0.58469,1.7966,2,0.69939,1,0.11813
14,3,26,146,1.5,0.35206,1.6844,2,0.60427,0,0.36158
14,3,27,147,3.0,0.37487,3.2651,2,0.55197,1,0.17107
14,3,28,148,1.5,0.60018,1.6318,2,0.71433,1,1.6414
14,3,29,149,3.0,0.42538,4.0408,2,0.51571,1,0.35644
14,3,30,150,3.0,0.67308,3.9502,2,0.20119,1,0.22128
14,3,31,151,3.0,0.46806,2.5214,2,0.28064,1,0.10489
14,3,32,152,1.5,0.43982,2.439,2,0.44458,1,0.25046
14,3,33,153,3.0,0.49851,3.4437,3,1.1704,1,0.12105
14,3,34,154,1.5,0.64813,2.3544,2,0.86887,1,0.11939
14,3,35,155,1.5,0.48428,2.4568,2,0.63367,1,0.15583
14,3,36,156,3.0,0.49144,3.3532,2,0.28858,1,0.14995
14,3,37,157,3.0,0.43142,3.0683,2,1.1758,0,1.3634
14,3,38,158,3.0,0.491,2.9148,2,0.61393,0,2.1294
14,3,39,159,1.5,0.4455,1.732,2,0.52718,1,0.41226
14,3,40,160,1.5,0.36909,2.3729,2,0.44382,1,0.16331
14,3,41,161,1.5,0.5001,2.3563,2,0.3452,1,0.10307
14,3,42,162,1.5,0.83324,2.3175,2,0.52744,1,0.32638
14,3,43,163,1.5,0.43608,2.0089,2,0.26221,1,0.33944
14,3,44,164,3.0,0.37324,3.476,2,1.0204,1,0.14577
14,3,45,165,1.5,0.42429,2.5518,2,0.70242,1,1.1712
14,3,46,166,1.5,0.58349,1.744,2,0.82577,0,0.18931
14,3,47,167,1.5,0.71321,2.5823,2,0.31172,0,1.6652
14,3,48,168,3.0,0.39537,3.381,2,0.4505,1,0.14512
14,3,49,169,3.0,0.44744,3.1906,2,0.23212,1,0.092975
14,3,50,170,3.0,0.64084,4.0144,2,0.72274,1,0.19956
14,3,51,171,1.5,0.38997,2.0884,2,0.45764,1,0.20182
14,3,52,172,3.0,0.33312,3.6324,2,0.26258,1,0.14212
14,3,53,173,1.5,0.46986,1.4471,2,0.76424,0,0.24056
14,3,54,174,1.5,0.36771,2.0966,2,0.63985,0,0.12518
14,3,55,175,3.0,0.35824,3.2392,2,0.35571,1,0.14945
14,3,56,176,1.5,0.39922,1.9075,3,0.20917,1,0.9548
14,3,57,177,1.5,1.8254,1.9361,2,1.5052,1,0.18376
14,3,58,178,3.0,0.41962,2.6721,2,0.64341,0,0.15405
14,3,59,179,1.5,0.4561,1.9268,2,0.54952,0,0.14382
14,3,60,180,3.0,0.5543,3.3479,2,0.30026,0,0.92017
14,3,61,181,3.0,0.96667,4.0807,2,0.6846,1,0.44549
14,3,62,182,3.0,2.2167,3.4059,2,0.5162,1,0.30678
14,3,63,183,1.5,0.51188,1.8939,2,0.41317,0,0.22764
14,3,64,184,3.0,0.54426,3.2438,3,0.57133,0,0.47394
14,3,65,185,1.5,0.41599,2.1067,2,0.58363,1,0.15766
14,3,66,186,3.0,0.308,3.2658,2,0.32724,1,0.15054
14,3,67,187,3.0,0.42769,2.6559,2,1.0317,0,0.95418
14,3,68,188,3.0,0.42337,3.3257,2,0.55724,1,1.3016
14,3,69,189,1.5,0.51247,2.0949,2,0.50097,1,0.095852
14,3,70,190,1.5,0.47594,1.6269,2,0.46506,1,0.14299
14,3,71,191,3.0,0.3691,2.9599,2,0.29644,1,0.14106
14,3,72,192,1.5,0.37667,1.9187,2,0.66605,0,0.18134
14,3,73,193,1.5,0.47126,1.9118,2,0.38514,1,0.54634
14,3,74,194,3.0,0.3753,4.3908,2,0.44038,1,2.0521
14,3,75,195,1.5,0.44007,2.1509,2,0.24016,1,0.14061
14,3,76,196,3.0,0.83775,3.085,2,0.60068,1,0.094555
14,3,77,197,3.0,0.36348,2.6084,2,0.43319,0,0.21983
14,3,78,198,3.0,0.75003,2.9559,2,0.41734,1,0.083236
14,3,79,199,1.5,0.46436,2.004,2,0.60748,1,0.1632
14,3,80,200,3.0,0.39123,3.3391,2,0.34219,1,0.11533
14,3,81,201,1.5,0.48463,1.9083,2,0.6484,1,0.37999
14,3,82,202,3.0,0.37247,3.6887,2,0.32703,1,0.22567
14,3,83,203,3.0,0.43595,3.3336,2,0.27849,1,0.17763
14,3,84,204,3.0,0.46578,3.8934,2,0.54511,1,0.16408
14,3,85,205,3.0,0.31916,3.7473,2,0.21142,1,0.11538
14,3,86,206,1.5,0.41798,1.5832,2,0.35367,0,0.073603
14,3,87,207,3.0,0.35382,3.7736,2,0.77858,1,0.37666
14,3,88,208,3.0,1.2826,3.321,2,0.41458,1,0.1045
14,3,89,209,3.0,0.51975,3.2608,2,0.38408,1,0.29508
14,3,90,210,3.0,0.88336,4.1671,2,0.2382,1,0.11202
15,3,1,121,3.0,1.1511,2.7817,2,2.2647,0,0.50447
15,3,2,122,3.0,0.81615,2.9808,3,1.8634,0,1.1665
15,3,3,123,3.0,2.6279,2.937,3,1.2414,1,1.3001
15,3,4,124,1.5,0.98675,1.2591,2,4.2256,0,0.76664
15,3,5,125,3.0,0.89625,3.1183,3,1.0256,1,0.35212
15,3,6,126,3.0,0.92192,3.1603,3,1.7964,1,0.16617
15,3,7,127,1.5,0.72606,1.9398,3,1.16,1,0.43878
15,3,8,128,1.5,0.61975,1.3839,2,1.4176,0,0.20491
15,3,9,129,1.5,0.726,1.9894,2,1.8091,0,0.46151
15,3,10,130,3.0,1.1958,3.2552,3,1.4545,1,1.2956
15,3,11,131,3.0,0.64356,3.092,3,4.9329,0,0.11019
15,3,12,132,3.0,0.6758,3.4163,3,2.413,1,0.15161
15,3,13,133,3.0,1.179,2.9048,3,1.6291,0,0.35309
15,3,14,134,3.0,0.63112,2.8919,3,2.0077,1,0.73589
15,3,15,135,1.5,0.91116,1.3919,2,1.6383,0,0.44636
15,3,16,136,1.5,0.72981,1.4685,3,1.9186,0,0.42944
15,3,17,137,3.0,0.71154,2.755,2,1.618,0,0.46682
15,3,18,138,3.0,1.004,2.7466,2,2.8012,0,0.28845
15,3,19,139,3.0,0.58452,2.6824,3,2.0119,0,0.43949
15,3,20,140,1.5,0.76953,1.6831,3,5.1537,0,0.87552
15,3,21,141,3.0,0.54416,2.8676,3,1.4258,0,3.0636
15,3,22,142,1.5,0.66639,2.1679,3,1.6032,1,0.40697
15,3,23,143,1.5,0.725,1.7646,2,1.6759,1,0.43723
15,3,24,144,1.5,0.88773,1.2226,2,1.4105,0,0.55076
15,3,25,145,3.0,0.57109,2.4348,3,1.1903,0,0.49998
15,3,26,146,3.0,0.55998,3.1172,3,1.5869,0,0.39407
15,3,27,147,1.5,0.65564,1.4372,3,1.9202,0,0.30695
15,3,28,148,1.5,0.50419,1.0362,3,1.1954,0,0.31745
15,3,29,149,1.5,0.53583,1.3587,3,0.9251,0,0.41497
15,3,30,150,1.5,0.49878,1.7555,2,1.5335,1,0.4034
15,3,31,151,3.0,0.55975,2.6666,3,10.176,0,0.52881
15,3,32,152,3.0,0.61862,2.4709,2,5.8425,0,0.97998
15,3,33,153,1.5,0.51144,1.5434,3,0.50159,0,1.0836
15,3,34,154,1.5,0.4649,1.4047,3,1.9213,1,2.0946
15,3,35,155,3.0,0.83731,2.7473,3,1.7629,0,0.34139
15,3,36,156,1.5,0.53983,1.4627,3,1.187,0,0.28418
15,3,37,157,3.0,0.54318,2.8151,3,1.6751,1,0.4737
15,3,38,158,3.0,0.5221,3.5622,2,2.2224,1,0.53195
15,3,39,159,1.5,0.5707,1.5229,3,1.6104,1,0.70085
15,3,40,160,1.5,0.48925,1.4001,3,1.5922,0,0.52391
15,3,41,161,3.0,0.59102,2.7144,3,1.4014,0,1.8064
15,3,42,162,3.0,0.5865,3.335,2,1.5999,1,0.44194
15,3,43,163,1.5,0.93581,1.5694,3,1.8312,0,0.67562
15,3,44,164,3.0,0.48313,2.8813,3,1.4013,1,0.40698
15,3,45,165,1.5,0.89059,1.0009,2,2.6815,0,0.46404
15,3,46,166,1.5,0.53687,1.5345,3,1.2813,1,0.38895
15,3,47,167,3.0,0.56137,3.0802,3,5.1382,1,0.60157
15,3,48,168,3.0,0.61403,2.9214,3,2.5536,0,0.15443
15,3,49,169,1.5,0.76846,1.1696,3,1.9963,0,0.1765
15,3,50,170,3.0,0.70744,2.5758,2,2.0354,1,0.21669
15,3,51,171,1.5,0.48896,1.3254,3,1.6631,0,0.15444
15,3,52,172,3.0,0.47218,2.887,3,0.66623,0,0.2677
15,3,53,173,3.0,0.50323,3.2482,3,4.563,0,0.15734
15,3,54,174,3.0,0.4685,2.9457,3,2.0749,0,0.17252
15,3,55,175,1.5,0.6142,1.9834,2,1.5269,1,0.97677
15,3,56,176,1.5,0.77225,1.2241,3,2.2123,1,0.30153
15,3,57,177,3.0,0.49046,2.9892,3,2.6551,0,0.96863
15,3,58,178,3.0,0.45328,3.0851,3,1.1257,0,0.70183
15,3,59,179,3.0,0.74312,2.8275,3,1.9614,0,0.70214
15,3,60,180,1.5,0.67812,1.1927,3,1.6015,0,0.28007
15,3,61,181,1.5,0.47414,1.39,3,1.3615,0,0.10211
15,3,62,182,1.5,0.44144,1.5533,3,1.4686,0,0.14433
15,3,63,183,3.0,0.53306,2.7689,3,6.8525,0,0.032685
15,3,64,184,3.0,0.6903,3.4501,2,1.0613,1,0.15343
15,3,65,185,1.5,0.96877,1.2694,3,2.2956,0,0.051167
15,3,66,186,1.5,0.56167,1.393,3,1.6384,0,0.04607
15,3,67,187,3.0,1.0639,2.419,2,4.7663,1,0.06025
15,3,68,188,1.5,0.86482,1.1715,3,1.835,0,0.029151
15,3,69,189,3.0,0.7514,2.9953,2,4.9485,1,0.13407
15,3,70,190,3.0,0.6141,3.0594,3,2.5831,1,0.12951
15,3,71,191,3.0,0.71463,2.8082,3,1.357,0,2.1124
15,3,72,192,3.0,0.84568,2.9922,3,4.6968,0,0.10697
15,3,73,193,1.5,0.65079,1.7703,3,3.8318,0,0.16198
15,3,74,194,1.5,0.46292,1.8454,2,1.6147,1,0.12601
15,3,75,195,1.5,0.48712,1.41,3,1.4644,1,0.26409
15,3,76,196,1.5,0.40781,1.6893,3,0.66001,0,0.16602
15,3,77,197,1.5,0.40629,1.4751,3,1.2004,0,0.15456
15,3,78,198,1.5,0.37914,1.4318,3,1.7772,0,0.11349
15,3,79,199,1.5,0.32322,1.289,2,1.1357,0,0.10693
15,3,80,200,3.0,0.44701,2.9709,3,1.5666,0,0.25271
15,3,81,201,1.5,0.41372,1.5912,3,1.1617,0,0.11539
15,3,82,202,1.5,0.4269,1.204,2,1.4845,0,0.12923
15,3,83,203,3.0,0.56972,2.4468,3,5.4233,0,0.16415
15,3,84,204,3.0,0.49045,2.264,2,7.3119,0,0.11465
15,3,85,205,1.5,0.52618,1.6905,3,1.2355,0,0.082293
15,3,86,206,1.5,0.43726,1.1357,3,1.4452,0,0.12837
15,3,87,207,1.5,0.47573,1.902,2,0.7186,1,0.17076
15,3,88,208,3.0,1.2833,2.9789,3,1.85,0,0.12738
15,3,89,209,1.5,0.75836,1.7654,3,1.6516,0,0.10469
15,3,90,210,3.0,0.47854,2.418,3,1.8028,1,0.80622
16,3,1,121,3.0,1.1254,3.2137,3,1.1374,1,0.57219
16,3,2,122,1.5,0.83881,1.1984,2,1.7036,0,0.61925
16,3,3,123,1.5,0.75569,1.5992,3,2.39,1,0.45774
16,3,4,124,3.0,0.83771,2.9857,3,2.6631,1,0.93888
16,3,5,125,3.0,0.6407,3.2509,3,2.2242,1,0.59684
16,3,6,126,1.5,1.1341,1.6065,3,1.1217,0,0.62253
16,3,7,127,3.0,1.0091,3.2655,3,1.1632,1,0.48951
16,3,8,128,3.0,1.0643,3.1322,3,0.6981,1,0.41635
16,3,9,129,3.0,1.4385,3.3838,1,1.4248,1,0.59938
16,3,10,130,3.0,0.72038,3.1097,2,4.4455,1,0.47082
16,3,11,131,1.5,1.2007,1.3545,3,1.5966,0,0.42876
16,3,12,132,1.5,0.94615,0.94377,2,1.3986,0,0.56572
16,3,13,133,1.5,0.65846,1.115,1,1.4532,0,0.4825
16,3,14,134,3.0,1.3082,2.5001,3,1.389,0,0.82276
16,3,15,135,1.5,0.87072,1.2974,3,1.265,0,0.65251
16,3,16,136,3.0,0.83513,2.682,2,1.4491,0,0.591
16,3,17,137,3.0,0.74098,3.3016,2,1.8871,0,0.51993
16,3,18,138,1.5,1.5096,1.7627,1,1.9623,0,1.0146
16,3,19,139,3.0,0.66371,3.1571,1,1.0567,1,0.46168
16,3,20,140,1.5,1.1056,1.8601,3,1.1384,1,0.60937
16,3,21,141,3.0,1.3003,3.1789,3,2.0486,1,0.71342
16,3,22,142,3.0,1.317,4.0162,3,1.8126,1,0.51678
16,3,23,143,3.0,0.93112,3.3325,3,1.6515,1,0.49282
16,3,24,144,3.0,0.75498,3.0611,3,1.6489,1,0.58844
16,3,25,145,3.0,0.055928,3.4141,2,1.8996,1,0.46446
16,3,26,146,1.5,1.2782,1.4018,3,1.3322,0,0.55322
16,3,27,147,3.0,1.3783,2.4902,2,2.046,0,0.50164
16,3,28,148,1.5,0.89022,1.4499,3,1.3421,0,0.70048
16,3,29,149,1.5,0.82292,1.5116,3,1.1287,0,2.1907
16,3,30,150,3.0,0.57397,2.8893,3,1.4178,1,0.54215
16,3,31,151,3.0,0.57909,3.2193,3,1.0889,0,1.0104
16,3,32,152,3.0,1.0156,3.0165,3,1.9365,0,0.56849
16,3,33,153,3.0,0.69345,2.979,3,0.762,0,0.61358
16,3,34,154,1.5,2.2007,1.0948,2,1.6365,0,0.54494
16,3,35,155,1.5,0.77951,1.5803,2,1.3018,1,0.58084
16,3,36,156,1.5,0.72273,1.5497,2,1.4668,0,0.49199
16,3,37,157,1.5,0.71003,1.7523,3,1.7433,0,0.9391
16,3,38,158,1.5,0.72973,1.7944,2,1.2887,0,0.87371
16,3,39,159,1.5,0.65222,1.6336,2,5.6538,0,1.2752
16,3,40,160,1.5,0.92705,1.64,2,1.6482,1,1.1513
16,3,41,161,3.0,0.6457,2.6693,1,2.2772,1,0.53758
16,3,42,162,3.0,0.95699,3.4373,2,2.4779,1,0.61204
16,3,43,163,1.5,0.71127,1.4683,1,1.7548,0,0.65804
16,3,44,164,3.0,0.63004,3.482,2,1.625,1,0.5374
16,3,45,165,1.5,0.66339,1.2824,3,1.3908,0,0.54889
16,3,46,166,3.0,0.65627,3.8389,1,1.2894,1,0.38606
16,3,47,167,3.0,0.66917,2.9721,2,1.4049,1,0.7221
16,3,48,168,3.0,0.80596,2.4996,2,0.7753,1,0.71364
16,3,49,169,1.5,0.6474,1.3331,2,1.0545,0,0.54791
16,3,50,170,3.0,0.72384,2.7512,3,2.0013,1,1.1778
16,3,51,171,3.0,0.67355,2.9626,3,1.3624,1,0.67927
16,3,52,172,3.0,0.68366,2.0436,2,1.687,0,0.48253
16,3,53,173,3.0,0.97924,2.5921,1,1.9845,0,0.69082
16,3,54,174,3.0,0.61233,3.2315,3,1.2757,1,1.1134
16,3,55,175,1.5,0.78873,1.3736,2,1.2623,1,0.64077
16,3,56,176,1.5,0.5003,1.2446,3,1.3907,0,0.63655
16,3,57,177,1.5,0.61012,1.6289,3,1.5611,1,0.51401
16,3,58,178,1.5,0.78287,2.0185,3,1.9282,1,0.86453
16,3,59,179,1.5,0.43489,1.6839,3,0.70445,0,1.1098
16,3,60,180,3.0,0.65507,3.3239,3,0.65445,0,0.64944
16,3,61,181,3.0,2.2986,3.6294,2,0.84715,1,0.74018
16,3,62,182,1.5,0.69969,1.2428,2,1.077,0,0.62718
16,3,63,183,3.0,1.0245,3.1011,2,1.8755,1,0.48577
16,3,64,184,3.0,1.3107,2.9536,3,0.58987,1,0.45089
16,3,65,185,1.5,1.0988,1.0586,2,0.8377,0,1.2226
16,3,66,186,3.0,1.2922,2.7766,3,1.3229,1,0.75911
16,3,67,187,3.0,0.51574,3.0552,3,0.41749,1,0.46933
16,3,68,188,1.5,0.65295,1.5852,3,0.54273,0,0.82871
16,3,69,189,3.0,0.90787,3.5759,3,0.44522,0,1.2137
16,3,70,190,1.5,0.92504,1.4271,3,1.3762,0,0.28856
16,3,71,191,1.5,0.68127,1.5785,3,0.91579,0,0.5296
16,3,72,192,1.5,0.64183,2.0404,3,2.5975,1,0.58934
16,3,73,193,1.5,0.87614,1.279,2,0.92446,0,0.72563
16,3,74,194,1.5,0.57566,1.4276,2,0.68666,0,0.67203
16,3,75,195,1.5,0.96365,1.8071,2,1.2726,1,0.47285
16,3,76,196,3.0,0.88023,3.2308,3,0.78861,1,0.47287
16,3,77,197,3.0,0.75268,2.6595,3,0.57173,1,0.48706
16,3,78,198,1.5,0.74251,1.1279,2,1.5116,1,0.49088
16,3,79,199,1.5,0.47176,1.8874,2,0.54412,0,2.0639
16,3,80,200,1.5,0.72577,1.8658,3,0.43862,0,1.4509
16,3,81,201,3.0,0.46584,3.0314,2,0.76306,0,1.6036
16,3,82,202,1.5,0.57547,1.6526,3,0.68081,1,0.37795
16,3,83,203,3.0,1.3683,3.0446,3,1.3097,1,0.92603
16,3,84,204,3.0,0.84212,3.4273,2,1.8959,1,0.52673
16,3,85,205,1.5,0.57895,1.3563,2,0.66114,0,1.3503
16,3,86,206,1.5,0.63986,1.2248,3,3.1636,0,2.3496
16,3,87,207,3.0,0.806,3.1251,3,2.4951,0,1.1244
16,3,88,208,1.5,0.81007,2.003,1,1.931,1,0.70417
16,3,89,209,1.5,0.73075,1.4955,1,1.4615,1,0.96542
16,3,90,210,1.5,2.1483,1.779,3,0.7367,0,1.1835
17,3,1,121,1.5,0.26152,1.4192,3,1.8056,0,0.67187
17,3,2,122,1.5,0.46412,1.5789,3,2.024,1,0.37216
17,3,3,123,3.0,1.9406,2.4591,2,1.6224,0,1.0343
17,3,4,124,3.0,0.56895,2.9586,3,1.3703,0,1.3209
17,3,5,125,3.0,0.4142,2.905,3,1.4421,1,0.80031
17,3,6,126,1.5,0.40336,1.9737,3,1.4087,1,1.2137
17,3,7,127,1.5,0.42888,1.7822,2,1.7024,0,2.0804
17,3,8,128,3.0,0.60664,3.0869,2,0.66586,0,1.1681
17,3,9,129,3.0,1.3744,2.738,2,1.6918,0,1.7243
17,3,10,130,1.5,0.43605,2.0478,2,4.4997,0,2.0864
17,3,11,131,3.0,0.43971,3.2128,3,1.0997,1,1.0923
17,3,12,132,3.0,0.61452,2.4419,3,1.3465,0,0.64185
17,3,13,133,3.0,0.55143,2.1076,3,1.7474,0,1.7668
17,3,14,134,1.5,0.45258,2.0341,3,1.6663,0,1.1275
17,3,15,135,1.5,0.2866,1.7726,2,1.5341,0,1.6043
17,3,16,136,1.5,0.35666,2.8266,2,1.8096,1,1.2757
17,3,17,137,3.0,0.31156,2.5439,2,1.3483,0,0.62707
17,3,18,138,3.0,0.55747,2.827,2,1.5479,0,1.0007
17,3,19,139,1.5,0.37996,1.8214,3,1.3079,1,0.81141
17,3,20,140,3.0,0.41231,3.1811,3,2.0013,1,1.4531
17,3,21,141,3.0,0.30578,2.3379,3,2.5689,0,1.0907
17,3,22,142,1.5,0.53909,0.88737,1,2.0105,0,0.68825
17,3,23,143,3.0,0.38008,2.1576,3,1.4605,0,0.83823
17,3,24,144,3.0,0.48959,2.2126,2,1.251,0,0.73171
17,3,25,145,1.5,0.52121,2.6497,3,1.0625,1,1.2389
17,3,26,146,1.5,0.36732,1.9452,2,1.5143,0,1.5133
17,3,27,147,3.0,0.48613,2.9976,2,2.7511,1,0.8378
17,3,28,148,1.5,0.44718,1.9042,1,1.7314,0,2.265
17,3,29,149,1.5,0.29802,1.5431,3,1.2133,0,3.5517
17,3,30,150,1.5,0.46424,2.0668,3,0.93974,0,1.9748
17,3,31,151,1.5,0.35368,1.0979,3,0.84107,0,2.2642
17,3,32,152,3.0,0.37043,2.8483,2,1.8147,0,2.626
17,3,33,153,1.5,0.52593,1.9029,2,0.90654,0,2.3995
17,3,34,154,3.0,0.56114,2.5926,3,0.78574,1,1.0331
17,3,35,155,1.5,0.48717,1.549,3,1.2277,1,0.66567
17,3,36,156,1.5,0.32948,2.0953,3,1.963,1,0.19183
17,3,37,157,3.0,0.48886,2.8507,3,0.88806,1,0.60952
17,3,38,158,1.5,0.81463,1.3696,3,4.1452,0,1.2947
17,3,39,159,1.5,0.52722,1.5548,2,1.2214,0,1.2341
17,3,40,160,3.0,0.44182,2.8148,2,2.6527,0,1.0161
17,3,41,161,3.0,0.63335,3.2684,2,2.2632,0,0.71387
17,3,42,162,1.5,0.48102,2.3796,2,2.2763,0,1.9494
17,3,43,163,3.0,0.4228,3.2633,2,1.9357,0,1.2306
17,3,44,164,1.5,0.57962,2.2321,2,1.4741,0,2.8618
17,3,45,165,3.0,0.5674,2.7071,1,2.7566,0,0.85777
17,3,46,166,1.5,0.55412,1.6616,2,1.4729,1,0.88505
17,3,47,167,1.5,0.33878,1.7251,1,2.2617,0,0.93889
17,3,48,168,3.0,0.5348,3.3195,2,1.6398,0,0.94711
17,3,49,169,3.0,0.42918,3.2815,2,1.8261,0,1.6501
17,3,50,170,3.0,0.5551,3.8992,2,3.4742,1,0.56829
17,3,51,171,1.5,0.4775,1.7687,2,1.3675,0,1.242
17,3,52,172,1.5,0.38745,1.5986,3,1.8898,0,0.98361
17,3,53,173,3.0,0.44599,2.9957,3,1.3744,1,0.32416
17,3,54,174,1.5,0.60019,1.695,3,1.0102,0,0.61589
17,3,55,175,3.0,0.58692,4.0976,1,1.4105,0,0.82555
17,3,56,176,1.5,0.44431,1.9673,2,1.4025,0,0.44462
17,3,57,177,1.5,0.34134,2.0783,2,2.2628,0,1.3897
17,3,58,178,1.5,0.65822,2.6406,2,1.5079,0,0.53663
17,3,59,179,1.5,0.49513,1.5191,2,2.9435,1,0.32203
17,3,60,180,1.5,0.5002,1.5314,3,1.0399,1,0.41117
17,3,61,181,1.5,0.47112,1.6492,2,1.9155,1,0.27575
17,3,62,182,1.5,0.29045,1.7269,3,1.5138,1,0.32579
17,3,63,183,3.0,0.88544,2.3826,1,2.0878,0,0.86844
17,3,64,184,1.5,0.54331,2.7279,2,1.3633,0,0.82619
17,3,65,185,3.0,0.40744,4.0775,3,1.3437,1,0.58945
17,3,66,186,3.0,1.2617,2.6534,3,2.3303,1,0.5509
17,3,67,187,1.5,0.26996,1.9102,2,0.97575,0,0.97665
17,3,68,188,3.0,0.60814,2.6904,3,1.8065,0,0.82199
17,3,69,189,1.5,0.51954,2.6102,3,1.1105,0,1.2769
17,3,70,190,3.0,2.2983,2.4646,1,1.8872,1,2.5828
17,3,71,191,1.5,0.53063,2.4453,2,3.2763,0,0.95811
17,3,72,192,3.0,2.0767,3.4248,1,1.6809,1,0.40093
17,3,73,193,1.5,3.7351,2.2647,2,2.7122,0,7.2765
17,3,74,194,1.5,0.37716,2.193,2,1.6613,0,0.67749
17,3,75,195,3.0,0.39935,2.6684,2,1.3152,0,1.4521
17,3,76,196,3.0,0.62242,2.8871,2,1.3281,1,0.31625
17,3,77,197,1.5,0.54349,1.6164,3,1.3161,0,1.078
17,3,78,198,1.5,0.36207,1.744,2,2.2259,0,0.37306
17,3,79,199,3.0,0.26219,2.8954,1,1.461,0,0.58914
17,3,80,200,3.0,0.52015,3.3352,3,1.6748,0,1.2615
17,3,81,201,3.0,0.45815,4.4531,1,2.0644,1,0.21728
17,3,82,202,3.0,0.34756,2.8053,2,2.6682,1,0.30179
17,3,83,203,1.5,0.35269,2.3359,3,0.84085,1,0.2263
17,3,84,204,3.0,0.45287,3.573,2,1.9538,1,0.65569
17,3,85,205,3.0,0.056305,3.7398,2,1.329,1,0.21556
17,3,86,206,1.5,0.36394,1.7675,2,1.6662,0,0.87715
17,3,87,207,3.0,0.23087,3.0059,2,1.0058,0,0.94842
17,3,88,208,3.0,0.44717,3.316,2,0.99798,0,2.966
17,3,89,209,3.0,0.35869,2.7275,2,1.3629,0,1.2423
17,3,90,210,3.0,0.42856,4.1443,1,2.8076,0,0.90646
18,3,1,121,3.0,0.54107,3.2512,3,1.1746,1,0.52571
18,3,2,122,3.0,0.40956,3.4666,2,4.6279,1,0.85486
18,3,3,123,1.5,0.69066,1.0753,3,1.1767,0,0.51457
18,3,4,124,1.5,0.38783,1.6737,3,1.1982,1,0.50241
18,3,5,125,1.5,0.49724,1.8294,2,1.1282,1,0.54177
18,3,6,126,3.0,0.9209,3.5962,3,1.2489,1,1.9531
18,3,7,127,3.0,0.37247,2.7511,2,1.2509,0,0.5681
18,3,8,128,3.0,0.56737,2.9704,3,1.3783,1,0.55254
18,3,9,129,3.0,0.5329,2.9316,2,1.3642,0,0.68916
18,3,10,130,1.5,0.3369,1.3224,2,1.1976,1,0.60329
18,3,11,131,3.0,0.3558,3.1761,3,1.0076,1,0.65135
18,3,12,132,1.5,0.40224,1.4843,2,1.1177,1,0.58032
18,3,13,133,3.0,0.42242,2.9256,3,1.0833,0,0.55499
18,3,14,134,3.0,0.6726,2.8237,1,1.2831,1,0.91577
18,3,15,135,3.0,0.51126,2.3797,3,1.2639,0,0.41481
18,3,16,136,1.5,0.73623,1.5465,3,1.1377,0,0.92078
18,3,17,137,3.0,0.60818,3.3396,3,3.0414,1,1.0703
18,3,18,138,3.0,0.45587,2.9886,3,1.13,0,0.6516
18,3,19,139,1.5,0.59863,1.3925,3,3.2506,0,2.6037
18,3,20,140,1.5,0.57254,1.338,2,1.2831,1,0.86695
18,3,21,141,1.5,0.3352,1.647,2,1.0995,0,0.98026
18,3,22,142,3.0,0.41627,2.7829,3,1.0866,1,0.65843
18,3,23,143,1.5,0.44575,1.1451,3,1.2625,0,0.82878
18,3,24,144,3.0,0.92928,2.6935,2,2.9979,0,1.0763
18,3,25,145,3.0,0.80639,2.7373,3,0.94167,1,0.72666
18,3,26,146,1.5,0.45494,1.0868,3,2.4339,0,1.2386
18,3,27,147,1.5,0.59196,1.5153,2,2.4401,1,0.9955
18,3,28,148,3.0,0.59842,2.4933,3,1.8353,0,1.3676
18,3,29,149,1.5,0.53515,1.322,2,1.4219,1,1.1712
18,3,30,150,1.5,0.98642,2.3471,2,1.461,0,0.77688
18,3,31,151,3.0,0.83934,2.2755,3,0.9974,0,1.2899
18,3,32,152,3.0,0.44986,2.7687,2,1.4142,1,0.60158
18,3,33,153,1.5,0.51946,1.4348,3,1.0425,0,0.63867
18,3,34,154,3.0,0.44005,1.8643,2,1.2371,0,0.63376
18,3,35,155,1.5,0.64071,1.2763,3,1.5259,1,0.65058
18,3,36,156,3.0,0.7981,4.0783,2,1.0074,1,0.83849
18,3,37,157,3.0,0.35885,2.2412,2,1.022,1,0.61065
18,3,38,158,3.0,0.34863,2.5807,3,1.2482,1,0.90202
18,3,39,159,1.5,0.50496,1.2867,3,1.4824,1,0.55379
18,3,40,160,3.0,0.43331,2.3696,3,1.0301,0,0.677
18,3,41,161,1.5,0.46175,2.0054,3,1.3332,1,0.85438
18,3,42,162,1.5,0.56918,1.4096,2,1.5639,1,1.1802
18,3,43,163,3.0,1.0884,2.4604,3,1.3996,0,0.66557
18,3,44,164,3.0,0.60057,3.6446,3,1.2212,1,0.49595
18,3,45,165,3.0,0.44373,3.5053,2,1.4773,0,0.92655
18,3,46,166,1.5,1.3521,1.6949,3,1.5597,1,1.3006
18,3,47,167,1.5,0.55281,1.1224,2,1.2478,0,0.52824
18,3,48,168,1.5,0.5113,1.1678,2,1.5185,0,1.0308
18,3,49,169,1.5,0.41828,1.7709,3,1.0441,1,1.5543
18,3,50,170,1.5,0.50161,1.833,3,1.4521,0,0.76839
18,3,51,171,1.5,0.4032,1.6731,3,1.4351,0,0.7432
18,3,52,172,1.5,0.59739,1.3204,2,1.1714,0,0.57154
18,3,53,173,1.5,0.57796,1.5295,3,1.2127,1,0.55512
18,3,54,174,1.5,0.39711,1.4165,2,1.1161,1,0.45477
18,3,55,175,3.0,0.54233,2.2041,2,1.2178,1,0.51843
18,3,56,176,1.5,0.43282,1.1943,3,1.0234,0,0.54898
18,3,57,177,1.5,0.30858,1.1281,2,1.1491,0,0.52936
18,3,58,178,3.0,0.33184,2.9692,2,1.3765,0,0.92612
18,3,59,179,3.0,0.46752,3.1214,2,1.2777,1,0.8279
18,3,60,180,3.0,0.56923,2.2598,1,1.3361,1,1.6449
18,3,61,181,3.0,0.46945,2.9597,2,1.4839,0,0.50429
18,3,62,182,3.0,0.86597,3.2679,3,1.0484,1,1.566
18,3,63,183,1.5,0.5723,1.1874,3,1.0339,1,1.1682
18,3,64,184,1.5,0.46712,1.0835,1,1.4295,0,0.84144
18,3,65,185,3.0,0.60524,3.2233,3,1.0552,0,1.0102
18,3,66,186,3.0,0.50142,2.5831,2,1.2386,1,0.98467
18,3,67,187,3.0,0.45038,2.8077,2,0.9564,0,0.8124
18,3,68,188,1.5,0.55568,1.2624,2,1.3507,0,0.67978
18,3,69,189,1.5,0.45055,1.1579,3,1.1744,0,0.75161
18,3,70,190,1.5,1.17,1.7695,3,1.4445,0,0.66487
18,3,71,191,3.0,0.99289,3.0163,3,1.0615,1,0.81608
18,3,72,192,1.5,0.55259,1.5097,2,1.0751,1,0.87649
18,3,73,193,1.5,0.41397,1.6667,3,1.3656,0,0.81636
18,3,74,194,3.0,0.42546,2.6406,3,1.8328,0,0.97729
18,3,75,195,1.5,0.36506,1.4058,3,1.2097,0,0.96363
18,3,76,196,3.0,0.45975,3.3917,2,1.2192,1,0.47061
18,3,77,197,3.0,0.42013,3.5853,2,1.0628,1,0.68869
18,3,78,198,3.0,0.46476,3.3041,3,0.85277,1,0.4718
18,3,79,199,1.5,0.59375,1.2795,3,1.2003,0,0.50483
18,3,80,200,3.0,1.204,3.5465,3,1.098,1,0.55304
18,3,81,201,3.0,0.68781,3.3234,2,1.0306,0,0.65314
18,3,82,202,1.5,0.4815,1.3422,2,0.91294,0,0.46531
18,3,83,203,1.5,0.55724,1.2641,3,1.2135,0,0.52748
18,3,84,204,1.5,0.5057,1.6997,1,0.87895,1,0.58794
18,3,85,205,3.0,0.4265,3.0926,3,0.94518,0,0.50465
18,3,86,206,1.5,0.52996,1.5197,3,1.1444,0,0.72839
18,3,87,207,3.0,0.42058,3.1987,3,1.351,1,0.9677
18,3,88,208,1.5,0.66838,1.8705,3,1.0809,0,0.9781
18,3,89,209,3.0,0.42903,3.0195,2,1.2643,1,0.52639
18,3,90,210,1.5,0.78128,1.7215,3,1.0704,0,0.59658
19,3,1,121,1.5,0.73344,1.9309,3,2.3375,0,0.13112
19,3,2,122,1.5,0.46326,1.3697,3,2.594,1,0.099832
19,3,3,123,1.5,0.53041,1.296,3,0.8381,1,0.57269
19,3,4,124,3.0,0.89501,4.5789,3,1.6079,1,0.086085
19,3,5,125,3.0,0.69522,3.9808,3,2.6365,1,0.16575
19,3,6,126,1.5,0.76017,1.4905,3,1.724,0,0.085741
19,3,7,127,3.0,0.8017,3.6453,3,1.4589,1,0.8255
19,3,8,128,1.5,0.63799,1.7854,2,1.5304,0,0.14273
19,3,9,129,1.5,0.47071,1.698,3,1.6515,0,0.66745
19,3,10,130,3.0,0.55328,3.0853,3,2.6258,1,0.37202
19,3,11,131,3.0,1.0425,2.952,3,1.6773,0,0.20146
19,3,12,132,1.5,1.3613,1.3896,2,1.4735,0,0.098093
19,3,13,133,3.0,0.65007,2.8437,3,1.0727,1,0.099383
19,3,14,134,3.0,0.53048,3.1576,3,1.7065,1,0.15977
19,3,15,135,1.5,0.60328,2.0355,3,0.85427,1,0.1346
19,3,16,136,1.5,0.69117,1.7017,2,1.1922,0,0.1014
19,3,17,137,3.0,0.86958,3.6081,2,0.74285,1,0.19072
19,3,18,138,1.5,2.2007,1.0566,2,1.3123,0,0.19258
19,3,19,139,3.0,0.78455,4.4199,2,0.76465,1,0.11793
19,3,20,140,1.5,0.69916,1.4047,2,1.2337,0,0.10558
19,3,21,141,3.0,0.56508,3.5921,2,0.4814,1,0.11742
19,3,22,142,1.5,0.65595,1.4879,3,2.1953,0,0.75237
19,3,23,143,3.0,0.61662,3.2563,2,0.89276,1,0.089488
19,3,24,144,3.0,0.45917,4.4899,2,1.3023,1,0.11969
19,3,25,145,3.0,0.55036,2.9946,3,0.51055,1,0.16727
19,3,26,146,1.5,0.6601,1.854,3,0.93229,0,0.70515
19,3,27,147,1.5,0.80044,1.5818,2,0.81481,1,0.091041
19,3,28,148,1.5,0.65189,1.8076,3,1.6365,1,0.10545
19,3,29,149,3.0,0.50807,3.6523,2,1.2364,1,0.058114
19,3,30,150,1.5,0.58263,1.7317,3,1.7643,1,0.2546
19,3,31,151,3.0,0.66306,3.1812,1,1.826,0,0.08722
19,3,32,152,1.5,1.1483,1.6578,3,1.936,1,0.10507
19,3,33,153,3.0,1.2771,3.6649,2,1.4877,1,0.14493
19,3,34,154,3.0,0.91788,3.1568,3,1.4556,0,0.096693
19,3,35,155,3.0,0.85812,3.3256,3,1.5079,1,0.073845
19,3,36,156,3.0,0.68457,3.9955,3,1.7829,1,0.14068
19,3,37,157,1.5,0.75073,1.4687,3,2.5818,0,0.077423
19,3,38,158,3.0,0.76685,3.4566,2,2.5791,1,0.10037
19,3,39,159,1.5,0.52274,1.6502,3,1.4785,0,0.06618
19,3,40,160,1.5,0.51144,1.4425,3,1.8884,0,0.11986
19,3,41,161,3.0,0.79209,4.0406,3,1.8534,0,0.11907
19,3,42,162,3.0,0.54098,3.1394,3,0.84187,1,0.089421
19,3,43,163,1.5,1.9797,1.0261,1,1.616,0,0.090087
19,3,44,164,1.5,0.65547,1.0991,2,1.5042,0,0.096304
19,3,45,165,1.5,0.51109,1.4305,3,1.6136,1,0.1173
19,3,46,166,3.0,0.70503,3.6625,2,0.54736,1,0.14146
19,3,47,167,3.0,0.71771,3.4192,3,1.4879,1,0.23439
19,3,48,168,3.0,0.68515,3.1076,3,1.1946,1,0.21572
19,3,49,169,3.0,0.55853,3.4536,2,1.6384,0,0.095866
19,3,50,170,1.5,0.84856,1.429,2,1.4626,0,0.078614
19,3,51,171,3.0,1.0729,2.6357,3,2.0529,0,0.54343
19,3,52,172,1.5,0.6683,1.4203,2,1.0321,0,0.091429
19,3,53,173,3.0,0.60185,2.9337,3,0.93841,1,0.14699
19,3,54,174,3.0,0.51871,3.0473,2,1.2373,0,0.1343
19,3,55,175,3.0,0.51072,3.293,3,1.6209,0,0.069934
19,3,56,176,1.5,0.72205,1.7748,2,1.6728,1,0.084871
19,3,57,177,3.0,0.64209,3.1905,3,0.41779,1,1.3091
19,3,58,178,1.5,0.61467,1.4677,2,0.89219,1,0.22613
19,3,59,179,3.0,0.4986,3.2801,3,0.52528,1,0.55117
19,3,60,180,3.0,0.44841,3.3305,3,2.0752,1,0.12251
19,3,61,181,1.5,0.90063,1.4307,2,1.1511,0,0.093975
19,3,62,182,1.5,0.57545,1.7269,3,3.5392,0,0.16568
19,3,63,183,3.0,1.2067,3.3986,3,1.5887,0,0.071491
19,3,64,184,1.5,0.67617,1.4538,3,1.7834,0,0.20206
19,3,65,185,3.0,0.62154,2.548,2,0.9873,0,0.13371
19,3,66,186,3.0,0.72761,3.105,2,0.84054,0,0.18797
19,3,67,187,1.5,0.79094,1.701,2,1.117,0,0.10563
19,3,68,188,3.0,0.54008,3.1765,2,2.0959,0,0.07625
19,3,69,189,1.5,0.73385,1.5811,3,1.6389,0,0.1096
19,3,70,190,3.0,0.67832,3.3923,3,0.99538,0,0.079606
19,3,71,191,3.0,0.58456,3.5703,3,1.3762,1,0.063845
19,3,72,192,1.5,0.74317,1.8272,3,2.0383,1,0.21998
19,3,73,193,1.5,1.4924,1.6008,2,2.0668,0,0.076548
19,3,74,194,1.5,0.69041,1.8629,3,1.5413,0,0.061027
19,3,75,195,3.0,0.62966,3.7692,2,1.4627,1,0.14145
19,3,76,196,1.5,0.69354,1.6152,2,1.391,0,0.062123
19,3,77,197,1.5,0.76486,1.8281,3,1.2902,1,0.086363
19,3,78,198,3.0,0.61746,3.3828,3,1.313,1,0.1389
19,3,79,199,3.0,0.57849,3.1554,3,0.97926,1,0.039662
19,3,80,200,1.5,0.72782,1.343,3,1.8384,1,0.057619
19,3,81,201,1.5,0.68495,1.2578,3,1.3629,0,0.067604
19,3,82,202,1.5,0.79452,2.1666,3,1.6142,0,0.076088
19,3,83,203,1.5,0.73386,1.5067,3,1.7851,0,0.055685
19,3,84,204,3.0,1.4599,3.4388,2,3.1656,0,0.61479
19,3,85,205,3.0,1.5755,3.5995,3,2.5015,1,0.52711
19,3,86,206,1.5,0.66134,1.3298,3,2.5002,0,0.4019
19,3,87,207,1.5,0.75619,1.8373,3,1.3436,0,0.48975
19,3,88,208,1.5,0.65771,1.8014,3,0.93019,0,0.43964
19,3,89,209,3.0,0.49515,3.0557,3,0.93048,1,0.62783
19,3,90,210,1.5,0.65728,1.5895,2,1.7225,0,1.3465
20,3,1,121,1.5,0.28554,1.6717,3,0.60844,0,0.46432
20,3,2,122,3.0,0.31884,3.561,3,0.77048,0,0.52263
20,3,3,123,3.0,0.38593,2.9469,3,0.95175,0,1.0321
20,3,4,124,3.0,0.27597,3.0179,3,0.70058,1,0.40627
20,3,5,125,3.0,0.73336,3.6557,3,0.41552,1,0.29364
20,3,6,126,1.5,0.43613,1.7349,3,0.39218,0,0.64046
20,3,7,127,1.5,0.32883,1.2826,2,0.59037,1,0.8011
20,3,8,128,3.0,0.28053,3.2673,2,0.78635,0,0.29652
20,3,9,129,3.0,0.27773,2.6942,2,0.84801,0,0.50353
20,3,10,130,1.5,0.50036,1.5067,1,1.0605,1,0.59103
20,3,11,131,3.0,0.26626,2.6572,1,1.1836,0,0.89153
20,3,12,132,1.5,0.32158,1.124,2,0.65088,0,0.39427
20,3,13,133,1.5,0.27661,1.6047,1,1.5587,0,0.69971
20,3,14,134,3.0,0.4218,3.1376,2,0.72722,1,1.1928
20,3,15,135,3.0,0.2739,2.8528,1,0.98858,0,0.43685
20,3,16,136,1.5,0.43691,1.3486,1,0.96417,1,0.67853
20,3,17,137,3.0,0.29595,2.8337,3,0.82464,0,0.57669
20,3,18,138,3.0,0.29472,2.3683,2,0.86595,1,0.58043
20,3,19,139,1.5,0.29496,1.3941,1,0.81143,1,0.46706
20,3,20,140,3.0,0.27538,4.1408,2,1.0671,0,0.54257
20,3,21,141,3.0,0.30246,3.0981,2,0.71369,1,0.66455
20,3,22,142,1.5,0.29844,1.1676,1,1.3812,0,0.58987
20,3,23,143,1.5,0.35283,1.1475,2,1.2029,0,0.44505
20,3,24,144,3.0,0.30842,3.4662,1,1.0509,0,0.55723
20,3,25,145,1.5,0.35331,1.2485,2,0.74034,0,0.57624
20,3,26,146,1.5,0.27312,1.4396,3,1.7477,1,1.7511
20,3,27,147,3.0,0.27733,3.619,3,0.66258,1,0.60213
20,3,28,148,3.0,0.29852,2.7187,2,0.73859,0,0.39976
20,3,29,149,3.0,0.32974,3.008,1,1.3694,0,0.71893
20,3,30,150,3.0,0.34565,2.9691,1,2.39,0,0.84464
20,3,31,151,3.0,0.29562,3.7693,3,1.9249,1,6.8988
20,3,32,152,1.5,0.35979,1.3672,2,0.81688,0,0.54397
20,3,33,153,1.5,0.33346,1.4952,3,0.71131,0,0.45101
20,3,34,154,1.5,0.24544,1.5068,3,0.83664,0,0.83383
20,3,35,155,1.5,0.28346,1.8818,1,0.8514,1,0.42014
20,3,36,156,3.0,0.32114,3.9127,2,0.7716,0,0.62348
20,3,37,157,3.0,0.28722,3.4237,2,0.80409,0,0.59839
20,3,38,158,3.0,0.31661,2.9947,3,0.88607,1,0.5834
20,3,39,159,1.5,0.36639,1.2445,2,0.72486,0,0.46298
20,3,40,160,1.5,0.34393,1.4429,2,1.0761,0,0.40081
20,3,41,161,3.0,0.2718,3.5116,2,1.198,1,0.47706
20,3,42,162,3.0,0.33271,3.1948,2,0.85965,1,0.66506
20,3,43,163,1.5,0.56242,1.4695,2,0.59401,0,0.46662
20,3,44,164,1.5,0.27673,1.6665,3,0.79129,0,0.43856
20,3,45,165,3.0,0.2818,3.8314,1,0.72475,1,0.68823
20,3,46,166,3.0,0.3344,3.7957,1,0.72202,1,0.57305
20,3,47,167,1.5,0.40485,1.1244,2,0.63705,0,0.92345
20,3,48,168,1.5,0.28211,1.8443,3,0.89979,0,0.54346
20,3,49,169,1.5,0.23663,1.6727,3,0.7094,0,0.64168
20,3,50,170,3.0,0.2702,3.4614,2,0.59724,0,0.30421
20,3,51,171,1.5,0.32538,1.3298,3,0.98795,0,0.34704
20,3,52,172,1.5,0.23182,1.4059,2,0.83512,0,0.39594
20,3,53,173,1.5,0.26886,1.6223,3,0.80887,0,0.42696
20,3,54,174,3.0,0.28213,2.8951,2,1.2733,0,0.57339
20,3,55,175,3.0,0.26983,3.0613,2,0.8598,0,0.50298
20,3,56,176,1.5,0.28479,1.6224,3,0.70821,0,0.58919
20,3,57,177,1.5,0.2715,1.7492,2,1.3769,0,0.42683
20,3,58,178,1.5,0.38625,1.748,1,1.2127,0,0.50176
20,3,59,179,1.5,0.26163,1.4815,3,0.47653,0,0.29289
20,3,60,180,3.0,0.32315,3.5386,2,0.86613,0,0.42932
20,3,61,181,1.5,0.26369,1.7161,2,1.0024,1,1.2584
20,3,62,182,3.0,0.30212,3.7104,3,0.40728,0,0.35174
20,3,63,183,3.0,0.28638,2.649,2,0.88687,0,1.1214
20,3,64,184,1.5,0.32532,1.3155,1,0.71645,1,0.42955
20,3,65,185,3.0,0.28196,3.7933,1,0.45638,1,0.43882
20,3,66,186,3.0,0.30687,3.2025,3,1.3506,0,0.60483
20,3,67,187,3.0,0.28328,2.5952,2,0.96321,0,0.30151
20,3,68,188,1.5,0.33506,1.1467,3,1.164,0,0.37666
20,3,69,189,3.0,0.25761,3.4278,1,1.1339,1,0.78015
20,3,70,190,1.5,0.34449,1.2435,3,0.75102,0,1.0835
20,3,71,191,1.5,0.28554,1.697,3,0.80025,0,0.5441
20,3,72,192,3.0,0.31965,2.6354,2,0.97727,0,0.50346
20,3,73,193,3.0,0.33015,2.5041,3,0.62969,0,0.66491
20,3,74,194,1.5,0.35868,1.4025,3,0.53179,0,0.39289
20,3,75,195,1.5,0.23683,1.7619,2,0.71066,1,0.71737
20,3,76,196,1.5,0.2752,1.7152,2,0.86513,0,0.4925
20,3,77,197,3.0,0.24755,3.9174,1,0.66247,1,0.55311
20,3,78,198,3.0,0.27065,3.0869,1,1.4782,0,0.51437
20,3,79,199,3.0,0.46943,2.7347,2,0.57657,1,0.54237
20,3,80,200,1.5,0.32573,1.3789,3,0.53749,0,0.41115
20,3,81,201,1.5,0.31722,1.6329,2,0.87698,0,0.3678
20,3,82,202,3.0,0.43897,1.9877,1,0.80637,1,0.4876
20,3,83,203,3.0,0.38297,2.9453,2,1.098,0,0.71643
20,3,84,204,1.5,0.29562,1.4065,1,1.1862,0,0.44507
20,3,85,205,1.5,0.26394,1.566,2,0.6282,1,0.57592
20,3,86,206,3.0,0.26808,3.5479,1,0.84862,0,0.4927
20,3,87,207,1.5,0.31396,1.6052,3,0.88325,0,0.60554
20,3,88,208,3.0,0.29541,2.3691,2,0.75332,0,0.54729
20,3,89,209,1.5,0.35351,1.1975,3,0.67783,0,0.87614
20,3,90,210,1.5,0.29323,1.8551,2,1.0079,0,0.38802
21,3,1,121,3.0,0.78153,4.9424,3,1.2525,1,4.2442
21,3,2,122,3.0,0.91499,5.0961,3,1.3809,0,1.8646
21,3,3,123,1.5,0.7987,2.6423,3,1.7227,0,2.1965
21,3,4,124,1.5,0.93012,3.2559,2,2.7932,0,1.9971
21,3,5,125,1.5,1.1856,2.5195,3,1.6281,1,1.0523
21,3,6,126,1.5,0.87662,2.4654,3,1.0507,1,1.8047
21,3,7,127,3.0,0.61742,4.8702,3,1.6391,1,2.1958
21,3,8,128,3.0,0.6745,4.9016,2,1.3247,1,2.1875
21,3,9,129,3.0,1.0409,3.5634,3,1.4232,1,1.911
21,3,10,130,1.5,1.0266,2.966,3,1.0737,1,1.5119
21,3,11,131,3.0,0.81298,4.1686,3,1.177,0,1.4651
21,3,12,132,3.0,0.55016,3.9704,3,0.88711,0,0.89734
21,3,13,133,3.0,0.52171,4.4735,3,1.5528,1,1.1938
21,3,14,134,3.0,0.63562,3.5084,2,1.6189,1,1.7434
21,3,15,135,3.0,0.80019,4.457,3,1.227,1,1.7137
21,3,16,136,1.5,1.2563,2.6103,2,1.4112,1,3.9529
21,3,17,137,3.0,1.408,3.8119,3,1.3084,0,0.94969
21,3,18,138,1.5,1.3442,2.0023,3,0.91679,0,0.71836
21,3,19,139,1.5,0.8252,3.3014,2,2.4127,1,1.4004
21,3,20,140,1.5,0.94542,2.1679,3,1.0278,0,0.64137
21,3,21,141,3.0,0.58688,4.7486,2,1.397,1,1.476
21,3,22,142,3.0,1.1875,4.3211,2,0.88756,1,1.2727
21,3,23,143,1.5,0.52819,2.732,3,1.173,0,0.52405
21,3,24,144,1.5,0.45452,2.7857,3,0.99087,1,0.64955
21,3,25,145,3.0,1.9056,2.9706,3,0.9665,1,2.3426
21,3,26,146,3.0,0.583,5.0186,2,1.3113,1,0.5402
21,3,27,147,1.5,0.4123,2.369,3,1.0171,0,0.86711
21,3,28,148,3.0,0.59221,4.0025,3,1.0288,1,1.3757
21,3,29,149,1.5,0.45687,2.5132,3,1.5388,1,1.3348
21,3,30,150,3.0,1.9878,3.9823,2,1.061,0,1.1915
21,3,31,151,3.0,0.54481,3.9184,2,1.615,0,2.8018
21,3,32,152,1.5,1.1186,3.6562,2,1.7046,1,0.95693
21,3,33,153,3.0,0.4443,3.0807,3,1.226,0,0.80163
21,3,34,154,1.5,0.71064,2.3299,3,1.1469,0,1.203
21,3,35,155,3.0,0.4446,3.3184,3,1.1124,0,0.56696
21,3,36,156,1.5,0.55972,2.0784,3,1.0274,1,0.76498
21,3,37,157,3.0,0.43679,3.186,3,1.2634,0,0.67639
21,3,38,158,1.5,0.46104,2.1308,3,1.0732,1,0.5627
21,3,39,159,3.0,0.50483,3.6995,3,1.2253,1,1.6137
21,3,40,160,3.0,0.58211,3.8426,2,1.4193,0,1.3439
21,3,41,161,3.0,0.7464,3.3313,3,1.2379,0,0.55923
21,3,42,162,3.0,0.45773,2.9909,3,1.219,1,0.79458
21,3,43,163,1.5,0.51177,2.4818,3,2.5874,0,1.5168
21,3,44,164,1.5,0.44849,2.4676,3,1.1899,0,0.53533
21,3,45,165,3.0,0.40333,3.1108,2,1.4091,0,1.113
21,3,46,166,1.5,1.208,2.7879,3,1.1668,1,1.3791
21,3,47,167,3.0,0.60235,3.8471,2,1.8225,0,1.0221
21,3,48,168,1.5,0.5832,2.5315,2,0.95331,1,1.9207
21,3,49,169,1.5,0.58376,2.795,3,0.98716,1,0.5092
21,3,50,170,1.5,0.35573,2.8506,3,1.3006,0,0.6052
21,3,51,171,1.5,0.46268,1.8829,3,0.86405,0,0.504
21,3,52,172,3.0,0.45823,4.7396,2,1.5134,1,1.7679
21,3,53,173,1.5,0.51204,2.819,3,1.5525,0,1.1308
21,3,54,174,1.5,0.46916,1.5099,2,1.4762,0,0.97637
21,3,55,175,1.5,0.39237,2.4041,3,1.1805,0,0.60229
21,3,56,176,1.5,0.60275,2.4468,3,1.1726,0,3.8981
21,3,57,177,1.5,0.50315,2.3975,3,0.87866,0,0.85072
21,3,58,178,3.0,0.48801,4.2122,3,1.0453,1,0.7166
21,3,59,179,3.0,0.48347,3.5937,2,1.0086,0,1.4391
21,3,60,180,3.0,0.44154,4.1888,2,1.1276,1,2.053
21,3,61,181,1.5,0.46664,2.3068,3,0.93279,0,1.4795
21,3,62,182,1.5,0.45884,2.9018,3,1.4027,1,1.1317
21,3,63,183,1.5,0.43074,2.1291,3,1.2027,1,1.0949
21,3,64,184,3.0,2.556,4.2571,3,1.5265,1,0.82629
21,3,65,185,1.5,0.42302,2.2507,3,1.0773,0,0.32843
21,3,66,186,1.5,0.41679,2.1198,3,1.0054,0,0.53617
21,3,67,187,3.0,0.45784,4.6029,3,1.1636,1,1.5148
21,3,68,188,3.0,0.38775,4.7614,3,1.1182,1,0.65608
21,3,69,189,1.5,0.49884,2.7059,3,0.99329,1,0.55158
21,3,70,190,3.0,0.60815,3.7648,3,1.1234,1,2.9752
21,3,71,191,1.5,0.62406,2.3006,3,1.1647,0,0.39009
21,3,72,192,3.0,0.47163,3.6486,2,1.0758,1,1.4762
21,3,73,193,1.5,0.41175,1.8061,3,1.0218,0,0.43518
21,3,74,194,3.0,0.47068,3.5735,3,1.2162,1,4.5792
21,3,75,195,3.0,0.59804,4.0795,3,1.0581,1,0.67573
21,3,76,196,3.0,0.45143,4.1583,2,0.97868,1,0.87552
21,3,77,197,1.5,0.43389,2.7084,3,1.1323,1,1.2048
21,3,78,198,1.5,1.0581,2.3,3,1.6138,0,0.66813
21,3,79,199,1.5,0.62795,1.9797,3,1.162,1,0.96567
21,3,80,200,3.0,0.46259,4.6074,3,1.1513,0,0.40672
21,3,81,201,1.5,0.88675,2.3597,3,1.1613,0,0.81643
21,3,82,202,1.5,0.57795,2.9809,2,1.8252,1,1.2119
21,3,83,203,3.0,0.55274,3.5353,3,1.0994,1,0.76708
21,3,84,204,1.5,0.58461,2.3955,3,1.2513,0,0.44249
21,3,85,205,3.0,1.6585,5.0373,3,1.1499,0,0.50616
21,3,86,206,3.0,1.066,3.8173,3,0.87639,1,1.0656
21,3,87,207,1.5,0.46835,2.3201,3,0.9682,0,0.46906
21,3,88,208,3.0,0.68226,4.8933,2,0.84054,1,2.5515
21,3,89,209,3.0,0.57202,3.2864,3,1.2895,0,0.69754
21,3,90,210,1.5,0.75753,2.3385,3,0.85647,0,0.47543
22,3,1,121,3.0,1.9562,2.647,2,2.2645,1,0.84073
22,3,2,122,3.0,0.61894,3.0962,3,0.58667,0,1.1222
22,3,3,123,3.0,0.72618,2.7529,3,0.79091,1,1.1757
22,3,4,124,3.0,0.97516,2.7885,3,0.4808,1,0.77841
22,3,5,125,3.0,0.55361,2.7479,3,1.698,0,0.30127
22,3,6,126,1.5,1.5884,1.3218,2,1.9722,0,0.69516
22,3,7,127,1.5,0.50876,1.7899,2,3.598,0,0.67371
22,3,8,128,3.0,0.59438,2.5181,2,1.3644,0,1.014
22,3,9,129,3.0,1.4707,2.5083,3,2.2468,0,1.1126
22,3,10,130,1.5,0.90962,1.6647,3,2.3008,1,1.6653
22,3,11,131,3.0,0.40975,2.9288,2,1.3124,0,1.0536
22,3,12,132,3.0,0.50601,2.2877,2,0.79304,1,1.4283
22,3,13,133,1.5,0.53986,1.5374,3,1.3712,0,0.43369
22,3,14,134,3.0,0.40485,2.7239,3,3.4704,0,0.93894
22,3,15,135,3.0,0.78275,2.8188,1,0.52672,1,0.8546
22,3,16,136,1.5,1.2515,1.5693,2,1.5557,0,0.90864
22,3,17,137,1.5,0.59726,1.796,2,1.4782,0,1.1148
22,3,18,138,1.5,0.50206,2.1965,1,6.8271,0,1.7264
22,3,19,139,3.0,0.33931,3.0515,3,1.063,0,0.73986
22,3,20,140,3.0,0.59063,2.7141,3,1.3511,1,0.69339
22,3,21,141,1.5,0.80649,1.101,2,1.0302,0,0.72775
22,3,22,142,3.0,0.68149,3.0918,2,1.0697,1,0.84594
22,3,23,143,3.0,0.43443,3.1837,2,4.7117,0,0.68061
22,3,24,144,3.0,0.65167,2.4457,2,0.81355,0,1.0525
22,3,25,145,1.5,0.69471,1.6678,3,0.87938,1,0.93958
22,3,26,146,1.5,0.64502,1.6929,3,5.6129,0,0.4551
22,3,27,147,1.5,0.78312,1.8437,2,1.6967,0,0.84161
22,3,28,148,1.5,0.58709,1.7733,2,0.95824,0,0.53909
22,3,29,149,1.5,0.41061,1.6676,2,0.65442,0,0.31083
22,3,30,150,3.0,0.59955,2.9317,3,1.501,1,0.22985
22,3,31,151,1.5,0.63833,1.4244,3,1.3988,0,0.45308
22,3,32,152,3.0,0.75003,2.7682,2,0.92697,0,0.60371
22,3,33,153,1.5,0.57761,1.3433,2,1.4102,0,0.45166
22,3,34,154,1.5,0.61094,1.7555,2,3.3707,0,0.11479
22,3,35,155,1.5,0.32562,1.6034,3,1.2827,0,0.27853
22,3,36,156,3.0,0.49287,2.4913,3,3.9844,1,1.9761
22,3,37,157,1.5,0.66452,2.2671,1,0.71404,1,0.528
22,3,38,158,3.0,0.51562,2.1687,3,0.72889,0,0.92597
22,3,39,159,1.5,0.40544,1.7253,2,1.6617,0,0.26407
22,3,40,160,3.0,0.37502,2.6401,2,1.5448,1,0.55261
22,3,41,161,1.5,0.42455,2.1272,3,0.82507,0,0.81437
22,3,42,162,1.5,0.51089,1.3685,1,2.2311,0,0.85315
22,3,43,163,1.5,0.44399,1.5927,2,0.70091,0,0.51947
22,3,44,164,3.0,0.95258,3.6337,2,1.601,1,0.75511
22,3,45,165,3.0,0.40565,3.8378,2,7.1891,0,1.0592
22,3,46,166,3.0,0.31618,3.9321,2,1.0878,1,0.93418
22,3,47,167,3.0,0.39685,6.0405,1,0.91404,1,0.80349
22,3,48,168,1.5,0.56307,1.2574,1,4.7994,0,0.86086
22,3,49,169,3.0,0.40544,3.0121,2,0.72392,1,1.3507
22,3,50,170,1.5,0.56122,1.7682,3,1.7294,0,1.1035
22,3,51,171,1.5,0.50735,2.2145,2,5.3617,0,0.99122
22,3,52,172,1.5,0.52798,1.6678,3,1.6669,0,0.5032
22,3,53,173,3.0,0.63316,3.8439,2,0.24534,1,0.70258
22,3,54,174,1.5,0.51155,1.8179,2,0.50504,1,0.3121
22,3,55,175,1.5,0.5281,1.968,2,0.44167,1,0.80185
22,3,56,176,3.0,1.2857,3.5065,1,0.26778,1,0.84566
22,3,57,177,3.0,0.69883,3.0164,3,1.5036,1,0.43312
22,3,58,178,1.5,0.52483,1.3397,3,1.061,0,0.47817
22,3,59,179,1.5,0.68684,1.7103,3,1.7628,0,0.40415
22,3,60,180,1.5,0.40969,1.8425,3,0.37418,0,0.3893
22,3,61,181,3.0,0.6817,3.2301,3,1.6116,1,0.85295
22,3,62,182,3.0,0.49655,2.3952,2,1.2633,0,0.58866
22,3,63,183,1.5,0.43884,1.2758,2,0.26408,0,0.51667
22,3,64,184,3.0,1.3599,3.4143,2,1.274,1,0.82451
22,3,65,185,1.5,0.3826,1.8821,3,0.60176,0,0.73237
22,3,66,186,3.0,0.44839,2.9559,3,0.51718,0,1.1581
22,3,67,187,3.0,0.39075,3.1638,3,2.2876,0,0.89372
22,3,68,188,3.0,0.46422,3.0284,2,2.0984,0,1.2677
22,3,69,189,3.0,0.82698,3.0402,2,2.6323,0,1.7665
22,3,70,190,3.0,0.55438,2.9493,3,1.3784,1,3.4278
22,3,71,191,3.0,0.63294,2.6811,2,0.3402,1,1.1007
22,3,72,192,3.0,0.55871,2.978,2,2.423,0,0.9584
22,3,73,193,1.5,0.63194,3.7054,1,0.34041,1,1.288
22,3,74,194,1.5,0.74275,2.1523,2,0.82961,0,0.90169
22,3,75,195,3.0,0.70629,2.9998,2,1.3659,1,0.80272
22,3,76,196,1.5,2.5408,1.9707,2,0.94331,1,1.0768
22,3,77,197,3.0,0.50593,3.2622,2,2.2239,0,1.1587
22,3,78,198,1.5,0.60203,1.9471,3,2.3486,0,0.87922
22,3,79,199,1.5,0.57044,2.0241,2,2.8335,0,0.86788
22,3,80,200,3.0,0.35104,2.909,1,1.4961,0,0.49193
22,3,81,201,1.5,4.0714,1.4929,1,0.77544,1,1.0651
22,3,82,202,3.0,0.66138,3.5923,2,0.76915,0,1.1587
22,3,83,203,1.5,0.5862,1.8719,2,2.1838,0,0.96434
22,3,84,204,1.5,0.46035,1.9791,3,0.72785,0,0.82937
22,3,85,205,3.0,0.46334,2.8447,2,0.88645,0,0.89594
22,3,86,206,1.5,0.62506,1.6395,3,0.9478,0,0.82874
22,3,87,207,1.5,0.25269,1.6979,3,1.1762,0,0.41441
22,3,88,208,1.5,0.27286,1.776,3,1.0996,0,2.4049
22,3,89,209,3.0,0.36485,2.5805,2,1.5384,0,0.79708
22,3,90,210,1.5,0.44435,1.6297,2,0.93821,0,0.5851
23,3,1,121,3.0,0.5349,2.808,3,1.0571,0,0.48722
23,3,2,122,3.0,0.581,3.0163,3,0.92443,1,0.58756
23,3,3,123,3.0,0.58409,3.5198,3,0.43837,1,0.49917
23,3,4,124,3.0,0.68863,2.8235,3,0.74388,1,0.94158
23,3,5,125,1.5,0.9252,1.5014,3,0.41813,0,0.53319
23,3,6,126,1.5,1.3393,1.7601,3,0.40008,0,0.47066
23,3,7,127,3.0,0.59091,3.0776,3,0.40928,1,0.46667
23,3,8,128,1.5,0.56006,1.6178,3,0.71655,0,0.39303
23,3,9,129,3.0,0.47103,2.9608,3,2.1976,0,1.692
23,3,10,130,3.0,0.55591,3.0879,3,0.42767,1,0.67683
23,3,11,131,3.0,0.79356,2.5539,3,0.39249,1,0.70326
23,3,12,132,1.5,0.6322,8.8058,1,1.6549,1,0.90874
23,3,13,133,3.0,0.80201,2.9837,3,0.47499,1,0.51354
23,3,14,134,1.5,0.66486,1.6049,3,0.321,0,0.34916
23,3,15,135,3.0,0.4921,3.3151,3,0.38886,0,0.50071
23,3,16,136,3.0,0.42688,3.2925,3,0.40732,0,0.37631
23,3,17,137,1.5,0.66643,1.7813,3,0.31308,0,0.39101
23,3,18,138,1.5,0.65669,1.7876,3,0.44499,0,0.83936
23,3,19,139,1.5,0.76892,1.3701,3,0.31957,0,0.32336
23,3,20,140,1.5,0.4881,1.6619,3,0.34777,0,0.49305
23,3,21,141,1.5,0.47304,1.8011,3,0.32883,1,0.46554
23,3,22,142,1.5,0.5915,1.7145,3,0.40145,1,0.60869
23,3,23,143,1.5,0.61236,1.519,3,0.3437,0,0.41365
23,3,24,144,3.0,0.5674,3.2194,3,0.32753,1,0.47549
23,3,25,145,3.0,0.45181,2.9718,3,0.41781,0,0.60832
23,3,26,146,1.5,1.3547,1.496,3,0.35022,0,0.43185
23,3,27,147,3.0,0.57225,2.9374,3,0.35322,1,0.47292
23,3,28,148,1.5,1.3544,1.1459,3,0.73799,0,0.56085
23,3,29,149,3.0,0.59901,3.3815,3,0.37604,1,0.64083
23,3,30,150,1.5,0.64567,1.0947,3,0.32449,0,0.36562
23,3,31,151,3.0,0.5653,2.8541,2,1.4291,1,1.579
23,3,32,152,3.0,0.51014,3.2678,3,0.47407,1,0.58895
23,3,33,153,1.5,0.67884,1.8066,3,0.98358,0,0.59326
23,3,34,154,3.0,0.49793,3.2429,3,0.37091,1,0.47379
23,3,35,155,1.5,0.76242,1.7814,3,0.33749,1,0.42453
23,3,36,156,3.0,0.57188,3.1119,3,0.3993,0,0.70584
23,3,37,157,3.0,0.60158,3.2214,3,0.44024,0,0.38966
23,3,38,158,1.5,0.69946,1.555,3,0.35816,1,0.51549
23,3,39,159,3.0,0.45473,3.1491,3,0.47305,1,0.7134
23,3,40,160,1.5,0.67723,1.6536,3,0.39486,1,0.38957
23,3,41,161,1.5,0.44922,1.4698,3,0.33078,1,0.40517
23,3,42,162,1.5,1.7612,1.9527,2,1.1049,1,0.68436
23,3,43,163,1.5,0.62388,1.5761,3,0.41261,1,0.43982
23,3,44,164,1.5,0.46273,1.7959,3,0.45993,1,0.50545
23,3,45,165,3.0,0.4415,3.1407,3,0.39394,0,0.40141
23,3,46,166,1.5,0.76091,1.6042,3,0.39495,1,0.62685
23,3,47,167,3.0,0.43513,3.2102,3,0.43383,1,0.70704
23,3,48,168,1.5,0.73872,1.4369,3,0.39451,1,0.4646
23,3,49,169,3.0,0.53382,2.9568,3,0.40628,1,0.48787
23,3,50,170,1.5,0.87615,1.6037,3,0.43195,0,0.66798
23,3,51,171,1.5,0.81008,1.7778,3,0.31437,0,0.45591
23,3,52,172,3.0,0.54595,2.9817,3,0.30029,1,0.39634
23,3,53,173,3.0,0.3893,3.0257,3,0.29653,1,0.39085
