Subj_idx,Block,Trial_in_block,Trial,Stimulus,RT_start,Response,Confidence,RT_conf,ErrorDirection,RT_error
1,1,1,1,1.5,1.4217,1.3226,2,5.2847,0,0.99854
1,1,2,2,1.5,1.2055,2.2855,2,1.4792,1,1.1665
1,1,3,3,1.5,1.3408,1.3363,2,2.2452,0,0.47529
1,1,4,4,1.5,0.87049,1.6974,2,2.4624,0,1.1259
1,1,5,5,1.5,1.3661,1.6577,3,0.9865,1,2.8081
1,1,6,6,1.5,0.82046,2.4473,2,5.8529,1,1.172
1,1,7,7,1.5,1.0332,2.6052,2,0.73047,1,1.054
1,1,8,8,1.5,0.97284,1.7494,2,1.202,1,0.1939
1,1,9,9,1.5,4.3669,1.5249,1,2.1739,0,0.75909
1,1,10,10,1.5,0.87669,1.9145,3,1.063,0,1.6147
1,1,11,11,1.5,1.008,1.4769,2,0.96365,1,2.9656
1,1,12,12,1.5,0.66128,2.0798,2,1.9529,1,0.21889
1,1,13,13,1.5,0.66661,1.681,2,1.8892,0,0.13253
1,1,14,14,1.5,0.83129,1.745,3,2.5649,0,1.2533
1,1,15,15,1.5,0.7338,1.7693,2,0.74346,1,0.21605
1,1,16,16,1.5,1.1011,2.1807,1,4.0029,1,0.25328
1,1,17,17,1.5,0.57046,2.3849,1,1.5165,1,0.1655
1,1,18,18,1.5,0.31568,1.6565,2,0.78383,1,0.15751
1,1,19,19,1.5,0.56712,2.0943,3,1.3755,0,1.5996
1,1,20,20,1.5,1.5877,2.9833,2,2.3615,1,0.82578
1,1,21,21,1.5,1.3432,1.8393,3,2.4097,0,0.96072
1,1,22,22,1.5,0.31227,1.5073,2,0.94886,0,0.82871
1,1,23,23,1.5,1.229,1.9675,3,0.93997,0,1.95
1,1,24,24,1.5,0.93646,2.0218,2,0.71977,1,0.15983
1,1,25,25,1.5,0.62652,1.8787,2,0.86108,1,0.19145
1,1,26,26,1.5,0.60027,1.8567,3,0.98497,1,0.81886
1,1,27,27,1.5,0.61899,1.9343,3,0.75411,1,1.2354
1,1,28,28,1.5,0.91006,1.5653,2,1.7019,0,0.51754
1,1,29,29,1.5,0.80659,1.3498,3,1.0543,0,0.70887
1,1,30,30,1.5,0.93583,1.9213,3,0.79429,0,1.0542
1,1,31,31,1.5,1.7837,2.1084,2,1.2094,1,1.577
1,1,32,32,1.5,0.5617,2.5298,2,0.93827,1,1.0743
1,1,33,33,1.5,1.5771,2.389,3,0.84504,1,0.71348
1,1,34,34,1.5,0.25903,1.6662,3,0.65266,0,0.90908
1,1,35,35,1.5,0.87295,1.9875,3,0.9316,1,1.0655
1,1,36,36,1.5,1.522,2.0345,2,1.0526,1,1.1589
1,1,37,37,1.5,0.88166,1.1799,2,1.3514,0,0.27957
1,1,38,38,1.5,0.67312,2.9885,2,1.8285,1,0.25169
1,1,39,39,1.5,1.445,1.527,1,1.7243,0,0.25959
1,1,40,40,1.5,0.46098,1.7683,2,0.96751,0,0.16794
1,1,41,41,1.5,0.7412,2.077,2,2.0491,1,0.12767
1,1,42,42,1.5,0.56574,1.806,3,2.7465,1,0.71391
1,1,43,43,1.5,0.5358,1.8459,2,0.83665,0,0.98388
1,1,44,44,1.5,0.38819,1.2867,2,0.94608,0,0.85033
1,1,45,45,1.5,0.6205,2.0104,3,1.1007,0,0.26852
1,1,46,46,1.5,0.77188,1.8863,2,1.9436,1,1.2873
1,1,47,47,1.5,0.54811,2.0179,2,0.97781,1,1.0429
1,1,48,48,1.5,1.0896,1.8238,2,2.4852,0,1.5284
1,1,49,49,1.5,0.59191,1.7645,2,0.78781,0,0.81072
1,1,50,50,1.5,0.37778,1.6424,2,0.9882,0,0.7352
1,1,51,51,1.5,1.0466,2.0071,1,2.0715,1,0.96998
1,1,52,52,1.5,0.49539,2.857,2,1.7567,1,0.38436
1,1,53,53,1.5,0.59805,2.0784,2,1.0893,1,0.11068
1,1,54,54,1.5,0.58781,2.4849,2,0.7027,1,0.18366
1,1,55,55,1.5,0.54604,2.2814,2,1.7123,0,0.12816
1,1,56,56,1.5,0.81071,1.5039,1,1.4703,0,0.14488
1,1,57,57,1.5,0.58432,2.4692,2,1.0546,1,0.42093
1,1,58,58,1.5,0.79052,1.6129,3,1.0869,1,2.2209
1,1,59,59,1.5,0.7885,2.4609,2,1.8496,1,0.47688
1,1,60,60,1.5,0.76015,1.827,2,2.8765,1,0.62247
2,1,1,1,1.5,0.80054,1.118,3,1.5065,0,1.349
2,1,2,2,1.5,1.5892,1.1849,3,1.8433,0,2.1886
2,1,3,3,1.5,1.2234,1.3609,3,1.2858,0,1.6318
2,1,4,4,1.5,0.74848,1.1055,2,3.1472,0,0.97527
2,1,5,5,1.5,2.6342,1.6064,3,1.759,0,2.1999
2,1,6,6,1.5,1.0983,1.9947,3,1.9385,1,1.12
2,1,7,7,1.5,0.61477,1.1535,2,1.096,0,1.2884
2,1,8,8,1.5,0.45729,1.1257,3,0.98999,0,1.7372
2,1,9,9,1.5,0.49243,1.0281,3,1.4748,0,0.73703
2,1,10,10,1.5,0.54545,1.4069,3,1.4356,0,1.2058
2,1,11,11,1.5,0.65005,1.8441,3,1.4015,1,0.86863
2,1,12,12,1.5,1.0939,1.7033,2,1.9561,0,1.8218
2,1,13,13,1.5,0.7764,1.64,3,3.1112,0,1.0731
2,1,14,14,1.5,0.77905,1.5061,1,1.0965,0,1.1767
2,1,15,15,1.5,0.768,1.3815,3,1.1772,1,1.1401
2,1,16,16,1.5,0.90587,1.2868,2,1.2197,0,2.6956
2,1,17,17,1.5,0.36744,0.9339,1,1.3562,0,1.8725
2,1,18,18,1.5,0.77196,1.6604,3,1.6017,0,1.6061
2,1,19,19,1.5,0.86676,1.5937,3,1.1637,1,0.8895
2,1,20,20,1.5,0.67194,1.8369,2,1.4934,0,1.1898
2,1,21,21,1.5,0.67516,1.6771,3,3.1508,0,2.2415
2,1,22,22,1.5,1.0446,1.8162,3,1.7278,0,0.73937
2,1,23,23,1.5,2.5125,1.5377,3,1.0711,0,1.0974
2,1,24,24,1.5,0.55489,1.3365,3,1.0321,1,0.84176
2,1,25,25,1.5,0.89883,1.4922,3,1.0992,0,1.0042
2,1,26,26,1.5,0.81229,2.3925,2,1.0224,1,1.2736
2,1,27,27,1.5,1.0201,1.6591,3,2.6868,1,0.56599
2,1,28,28,1.5,0.73236,1.7049,2,1.333,0,1.7926
2,1,29,29,1.5,1.0047,1.5099,2,1.326,1,1.1892
2,1,30,30,1.5,1.3001,2.1549,2,1.082,1,0.66647
2,1,31,31,1.5,1.4715,2.109,2,1.2989,0,1.3283
2,1,32,32,1.5,0.88025,1.3944,2,1.162,0,2.3044
2,1,33,33,1.5,0.72458,1.8142,3,0.98722,1,0.95971
2,1,34,34,1.5,0.30057,1.571,3,1.7082,0,0.94805
2,1,35,35,1.5,1.1965,1.3553,3,1.3094,0,1.6765
2,1,36,36,1.5,0.74576,1.7439,1,1.5974,0,4.4508
2,1,37,37,1.5,0.30965,1.3556,1,2.072,0,1.182
2,1,38,38,1.5,0.33894,1.4633,3,1.05,0,1.1799
2,1,39,39,1.5,1.0291,1.6305,3,1.0382,1,1.8101
2,1,40,40,1.5,0.68579,1.4716,3,1.2093,0,0.83775
2,1,41,41,1.5,0.94249,1.452,2,0.76921,1,1.5458
2,1,42,42,1.5,0.85404,1.4231,2,1.1232,0,1.824
2,1,43,43,1.5,1.4547,1.9838,3,1.0023,0,3.0709
2,1,44,44,1.5,0.85914,1.8646,2,1.4509,1,0.66674
2,1,45,45,1.5,0.73305,1.7564,2,1.0337,1,0.78063
2,1,46,46,1.5,0.41391,1.4163,3,1.1292,0,1.8006
2,1,47,47,1.5,0.77362,1.7255,3,3.2862,0,1.6649
2,1,48,48,1.5,0.29973,1.7946,3,5.0386,1,2.3532
2,1,49,49,1.5,0.32829,1.844,2,4.5388,0,2.8621
2,1,50,50,1.5,0.27322,1.9261,3,1.9491,1,2.3147
2,1,51,51,1.5,0.34723,1.5301,3,1.2004,1,0.80447
2,1,52,52,1.5,0.26728,1.77,2,1.3075,1,1.9488
2,1,53,53,1.5,0.49673,1.12,1,2.0593,1,1.4981
2,1,54,54,1.5,0.57449,2.0899,2,1.1456,0,1.2555
2,1,55,55,1.5,0.39584,1.795,2,2.227,0,1.3112
2,1,56,56,1.5,0.46262,1.5697,3,1.6932,0,1.3515
2,1,57,57,1.5,0.27873,1.7315,3,1.6019,0,2.0439
2,1,58,58,1.5,0.29707,1.6914,3,1.5503,1,0.72736
2,1,59,59,1.5,0.31268,1.8451,3,1.2977,1,0.98962
2,1,60,60,1.5,0.28949,1.8874,3,1.1828,1,1.8787
3,1,1,1,1.5,3.5439,1.6086,3,1.9995,0,3.1519
3,1,2,2,1.5,2.3348,1.9816,2,2.2255,1,1.2107
3,1,3,3,1.5,2.7236,2.207,3,1.7454,1,2.3642
3,1,4,4,1.5,4.1714,2.1417,3,1.8354,1,1.9546
3,1,5,5,1.5,3.055,1.9791,2,1.7617,0,1.3252
3,1,6,6,1.5,1.7479,1.9792,2,2.753,0,0.70384
3,1,7,7,1.5,1.7099,1.4881,3,2.7964,0,1.4883
3,1,8,8,1.5,0.33999,1.3516,1,2.131,0,2.2161
3,1,9,9,1.5,1.338,1.8223,2,2.1452,1,2.9895
3,1,10,10,1.5,1.4186,1.7432,3,2.1752,0,1.5232
3,1,11,11,1.5,1.21,2.0774,3,1.8508,1,1.0405
3,1,12,12,1.5,0.87188,1.9872,3,1.3938,0,1.1511
3,1,13,13,1.5,0.57043,1.6228,2,1.0605,1,0.86442
3,1,14,14,1.5,0.97786,2.0158,2,2.7145,0,2.1138
3,1,15,15,1.5,0.70612,1.6248,2,1.5493,0,0.80291
3,1,16,16,1.5,0.69258,1.9407,2,1.4343,1,0.94307
3,1,17,17,1.5,0.72911,1.969,3,1.4919,0,2.0627
3,1,18,18,1.5,0.87178,1.6101,2,1.2645,0,2.2388
3,1,19,19,1.5,2.4714,1.8176,1,1.5289,1,1.6154
3,1,20,20,1.5,0.59745,1.7949,2,1.2149,1,2.3662
3,1,21,21,1.5,1.1305,1.8441,2,1.8132,0,1.1421
3,1,22,22,1.5,0.93452,2.195,3,1.4128,1,2.9056
3,1,23,23,1.5,0.90664,1.8624,2,1.3267,1,0.86417
3,1,24,24,1.5,0.77422,1.739,2,1.2463,1,1.089
3,1,25,25,1.5,1.1808,2.0821,1,1.4379,0,1.196
3,1,26,26,1.5,0.62938,1.6572,3,2.1724,1,1.3828
3,1,27,27,1.5,0.62865,1.5929,2,1.2384,0,1.0588
3,1,28,28,1.5,0.73397,1.495,1,1.761,0,2.214
3,1,29,29,1.5,0.89593,1.9056,1,1.3592,1,0.86239
3,1,30,30,1.5,1.25,1.3663,2,1.1913,1,1.6516
3,1,31,31,1.5,1.2282,1.4275,1,1.491,0,1.1489
3,1,32,32,1.5,1.0184,1.4068,1,1.3353,0,1.0824
3,1,33,33,1.5,2.2062,1.2945,2,0.87888,1,1.2137
3,1,34,34,1.5,0.77393,1.8126,1,1.3536,1,1.5832
3,1,35,35,1.5,0.82264,1.4609,2,1.0118,1,1.5409
3,1,36,36,1.5,0.84809,1.8079,2,1.1731,1,0.67438
3,1,37,37,1.5,2.5664,1.4169,2,2.1293,0,0.72711
3,1,38,38,1.5,1.6387,1.6838,3,1.8786,0,1.614
3,1,39,39,1.5,2.6021,1.7692,2,1.2431,1,1.0384
3,1,40,40,1.5,1.3246,1.826,2,1.0624,0,1.113
3,1,41,41,1.5,1.7022,2.0816,2,2.1492,1,1.6768
3,1,42,42,1.5,1.9501,4.681,1,1.534,1,1.2175
3,1,43,43,1.5,1.1228,1.3987,2,1.078,0,1.5794
3,1,44,44,1.5,1.4476,2.4818,2,1.4613,1,2.0895
3,1,45,45,1.5,1.3065,1.8981,3,1.3014,1,2.7307
3,1,46,46,1.5,1.1757,1.5266,2,1.6384,0,2.0835
3,1,47,47,1.5,1.5936,1.8008,2,1.8915,1,2.3608
3,1,48,48,1.5,0.90959,1.9904,2,1.6709,1,0.89625
3,1,49,49,1.5,0.13066,1.9307,1,1.3382,0,0.95839
3,1,50,50,1.5,0.88238,1.8168,1,1.1913,1,0.78782
3,1,51,51,1.5,1.2364,1.8444,2,1.077,1,1.0408
3,1,52,52,1.5,0.7022,1.7826,2,1.3018,1,2.182
3,1,53,53,1.5,0.65003,1.6949,1,1.3769,0,0.82735
3,1,54,54,1.5,1.1267,1.8265,1,1.4383,1,0.67071
3,1,55,55,1.5,1.1848,1.6556,1,1.7472,1,1.0043
3,1,56,56,1.5,1.1699,1.7322,2,1.8781,1,1.3015
3,1,57,57,1.5,0.92362,1.6378,2,1.695,1,0.93913
3,1,58,58,1.5,5.3487,2.0077,1,1.4986,1,1.002
3,1,59,59,1.5,1.2042,1.9342,2,1.4793,1,2.0416
3,1,60,60,1.5,1.6121,1.9279,3,1.5018,0,1.4679
4,1,1,1,1.5,0.55352,1.3351,3,2.281,0,0.87782
4,1,2,2,1.5,0.49981,1.2943,2,1.7908,1,2.2353
4,1,3,3,1.5,0.64319,1.3394,3,1.5867,0,0.95684
4,1,4,4,1.5,0.73961,0.7753,2,1.1509,0,0.70674
4,1,5,5,1.5,0.71077,1.5297,2,1.1126,0,0.47653
4,1,6,6,1.5,0.56048,0.92958,3,1.0138,1,1.2903
4,1,7,7,1.5,0.38026,1.6548,1,2.9827,1,0.81584
4,1,8,8,1.5,0.6316,1.4544,2,1.7717,0,0.80734
4,1,9,9,1.5,0.34939,1.1939,2,1.1979,1,0.69123
4,1,10,10,1.5,0.60438,1.7984,2,0.701,1,0.71937
4,1,11,11,1.5,0.59125,1.2523,3,1.0062,1,0.64876
4,1,12,12,1.5,0.49968,1.6071,2,0.7106,0,1.0535
4,1,13,13,1.5,2.0155,1.8801,2,1.0117,1,0.91718
4,1,14,14,1.5,0.50614,1.1379,2,1.1595,0,0.78854
4,1,15,15,1.5,0.6233,2.1138,2,0.84797,1,0.81648
4,1,16,16,1.5,0.37844,1.5809,2,0.7516,0,0.6954
4,1,17,17,1.5,0.66152,1.1316,2,0.61484,1,0.64247
4,1,18,18,1.5,0.57227,0.88699,2,0.95969,0,0.53934
4,1,19,19,1.5,0.52048,1.2736,2,0.94875,0,0.70432
4,1,20,20,1.5,0.51246,1.332,2,0.75194,1,0.58297
4,1,21,21,1.5,0.51324,1.7707,3,0.80645,1,0.53724
4,1,22,22,1.5,1.6086,1.4986,3,0.80339,1,0.87114
4,1,23,23,1.5,3.4866,1.9559,3,0.65905,1,0.8402
4,1,24,24,1.5,0.69774,0.99542,2,0.81276,0,0.85267
4,1,25,25,1.5,0.47315,1.7007,2,0.75385,1,0.73591
4,1,26,26,1.5,0.50944,1.8772,2,0.91354,1,0.55246
4,1,27,27,1.5,0.55723,0.90117,3,0.74415,1,0.71311
4,1,28,28,1.5,4.8967,1.3077,2,0.96186,1,0.76266
4,1,29,29,1.5,0.57018,1.7109,2,0.87585,1,0.56438
4,1,30,30,1.5,0.4326,1.906,2,0.84593,1,0.51361
4,1,31,31,1.5,0.62104,1.5732,3,0.82316,1,0.56102
4,1,32,32,1.5,0.55219,1.8213,3,0.80726,0,0.86311
4,1,33,33,1.5,0.8226,2.6378,1,1.792,1,0.88673
4,1,34,34,1.5,0.51103,1.6675,3,0.86714,1,0.81827
4,1,35,35,1.5,0.50125,1.5199,3,0.69435,1,0.54253
4,1,36,36,1.5,0.80019,1.0812,3,0.85223,1,0.43273
4,1,37,37,1.5,0.87643,0.7656,2,0.87967,1,0.48915
4,1,38,38,1.5,0.72811,1.505,3,1.4717,1,0.6343
4,1,39,39,1.5,0.60143,1.3465,3,0.73722,1,0.68475
4,1,40,40,1.5,0.63117,1.5164,2,1.454,0,0.56985
4,1,41,41,1.5,0.59564,1.9315,3,1.3009,1,0.55439
4,1,42,42,1.5,0.50921,1.278,3,0.90068,1,0.50609
4,1,43,43,1.5,0.48697,1.6353,3,0.72961,1,0.46546
4,1,44,44,1.5,0.44096,1.5269,3,0.76384,1,0.40375
4,1,45,45,1.5,0.41347,1.4343,3,0.87929,1,0.48887
4,1,46,46,1.5,0.62796,0.90458,2,0.74844,0,0.50358
4,1,47,47,1.5,1.0049,1.1469,2,0.80277,0,0.87074
4,1,48,48,1.5,0.48266,1.4321,2,0.82658,0,0.44111
4,1,49,49,1.5,0.19118,1.6533,3,0.73208,1,0.50433
4,1,50,50,1.5,0.42675,2.1673,3,0.97668,1,0.35368
4,1,51,51,1.5,0.57012,1.8604,3,0.78887,0,0.5854
4,1,52,52,1.5,0.53548,0.77042,3,0.94779,0,0.49002
4,1,53,53,1.5,0.47931,1.4451,3,0.79844,1,0.51733
4,1,54,54,1.5,0.50928,1.54,3,0.76068,1,0.51697
4,1,55,55,1.5,0.58785,1.4118,3,0.93661,0,0.58346
4,1,56,56,1.5,0.50852,1.54,3,0.87364,0,0.79936
4,1,57,57,1.5,0.3998,1.3189,3,0.54409,1,0.96371
4,1,58,58,1.5,0.83181,1.7291,3,1.124,0,1.2125
4,1,59,59,1.5,3.5282,2.1839,3,1.2775,0,0.96515
4,1,60,60,1.5,0.59034,0.5008,2,1.2448,0,0.54053
5,1,1,1,1.5,0.85375,1.1087,2,2.7129,0,1.4262
5,1,2,2,1.5,0.83331,1.3052,3,1.26,1,0.67678
5,1,3,3,1.5,0.3485,1.0312,3,0.85303,1,0.8332
5,1,4,4,1.5,0.71245,1.694,3,1.738,1,4.2588
5,1,5,5,1.5,0.96122,1.5917,2,2.0114,1,0.62648
5,1,6,6,1.5,0.58168,1.5674,2,1.8282,1,0.90189
5,1,7,7,1.5,0.7905,1.776,3,1.288,0,4.5969
5,1,8,8,1.5,1.6274,1.951,3,2.4662,0,4.1676
5,1,9,9,1.5,1.2134,1.8567,2,1.5839,1,0.66726
5,1,10,10,1.5,0.84539,1.856,2,7.008,1,1.5257
5,1,11,11,1.5,0.78329,0.86903,2,3.1831,0,0.41372
5,1,12,12,1.5,0.91885,1.1709,2,1.3085,0,0.54984
5,1,13,13,1.5,0.79988,1.0071,2,2.0742,0,0.65967
5,1,14,14,1.5,0.72903,1.6568,3,1.7472,1,1.504
5,1,15,15,1.5,0.77117,1.3983,2,1.6398,0,3.3725
5,1,16,16,1.5,0.47529,1.452,3,1.5442,1,4.3012
5,1,17,17,1.5,0.59238,1.3153,3,1.5153,1,0.52753
5,1,18,18,1.5,0.48113,1.1045,3,1.4345,0,0.55553
5,1,19,19,1.5,0.62173,1.2352,2,3.4566,0,0.64232
5,1,20,20,1.5,0.81666,0.86797,1,2.1824,0,0.80123
5,1,21,21,1.5,0.29931,0.95623,1,2.0629,0,0.95083
5,1,22,22,1.5,0.7155,1.5421,3,1.9511,1,0.63977
5,1,23,23,1.5,1.8544,1.7199,3,4.9319,1,1.1577
5,1,24,24,1.5,0.37154,1.0243,2,1.4511,0,0.70473
5,1,25,25,1.5,0.53518,1.7082,3,1.1485,1,1.6162
5,1,26,26,1.5,1.9597,1.5755,2,1.8368,0,0.53185
5,1,27,27,1.5,0.66299,1.5067,3,1.6229,1,3.1724
5,1,28,28,1.5,0.68156,1.4292,3,1.3508,0,0.48007
5,1,29,29,1.5,0.55969,1.442,2,1.4248,0,0.44985
5,1,30,30,1.5,0.61813,1.5204,3,1.632,1,0.66476
5,1,31,31,1.5,5.5462,1.2662,3,0.92949,0,0.52676
5,1,32,32,1.5,0.99902,1.417,3,0.97935,1,2.0131
5,1,33,33,1.5,0.64693,1.8448,3,1.7015,1,0.82957
5,1,34,34,1.5,0.76985,1.3337,2,5.9422,1,1.6285
5,1,35,35,1.5,1.4316,2.27,3,1.1423,1,3.3133
5,1,36,36,1.5,1.1891,2.2358,3,4.1297,1,5.584
5,1,37,37,1.5,1.1282,1.0286,3,1.8136,0,0.704
5,1,38,38,1.5,1.8731,1.5472,3,1.5756,1,0.66326
5,1,39,39,1.5,0.82102,1.5472,2,1.5133,0,5.0179
5,1,40,40,1.5,0.69734,1.3444,3,1.8278,0,0.42619
5,1,41,41,1.5,0.74908,1.8048,2,1.745,1,0.55205
5,1,42,42,1.5,1.1208,1.2217,3,1.4221,0,0.25949
5,1,43,43,1.5,0.67253,1.4002,3,1.7538,0,2.9699
5,1,44,44,1.5,0.63342,1.4186,2,1.3697,0,0.5314
5,1,45,45,1.5,0.57255,1.6012,3,1.5535,1,0.49576
5,1,46,46,1.5,0.56987,0.99684,3,1.702,0,0.55486
5,1,47,47,1.5,1.6548,1.1709,2,2.6586,0,0.68432
5,1,48,48,1.5,1.315,1.3938,2,3.6642,0,0.69994
5,1,49,49,1.5,0.65808,1.7896,2,9.6717,1,4.464
5,1,50,50,1.5,1.0098,1.0156,2,1.8916,0,1.8855
5,1,51,51,1.5,0.49784,1.2293,2,1.5256,0,0.76368
5,1,52,52,1.5,0.5571,1.5765,2,1.7755,1,0.64875
5,1,53,53,1.5,0.66524,1.4544,3,1.4331,1,3.9544
5,1,54,54,1.5,0.59848,1.5166,3,1.3417,0,1.9879
5,1,55,55,1.5,0.88262,1.1677,2,2.0305,0,0.64161
5,1,56,56,1.5,0.63365,1.4932,3,1.5382,0,1.934
5,1,57,57,1.5,0.5595,1.4522,2,6.382,0,2.3926
5,1,58,58,1.5,0.69857,1.1427,3,2.0631,1,1.4408
5,1,59,59,1.5,0.53848,1.6124,3,1.1739,1,0.62401
5,1,60,60,1.5,1.0733,1.3374,3,1.4704,0,2.0573
6,1,1,1,1.5,1.0266,2.066,3,1.3893,1,1.7717
6,1,2,2,1.5,0.62314,1.3639,2,1.9257,0,2.5489
6,1,3,3,1.5,0.71406,1.5575,3,1.7999,1,1.8527
6,1,4,4,1.5,0.50789,1.8889,3,1.8842,0,0.65303
6,1,5,5,1.5,0.44163,2.4661,2,1.8368,1,1.8563
6,1,6,6,1.5,0.56673,1.619,2,2.6676,1,1.4385
6,1,7,7,1.5,0.44167,1.6646,3,1.502,1,0.96817
6,1,8,8,1.5,0.60859,1.6288,2,3.2646,1,2.1017
6,1,9,9,1.5,0.3809,1.8294,1,1.1649,1,0.56669
6,1,10,10,1.5,0.69455,2.0553,2,2.1189,1,0.80511
6,1,11,11,1.5,0.6883,2.2984,1,3.5377,0,1.3133
6,1,12,12,1.5,0.59554,1.6942,2,1.6019,1,1.6174
6,1,13,13,1.5,0.55367,1.5849,1,3.0552,0,1.067
6,1,14,14,1.5,0.26732,1.5075,2,4.2496,1,4.8994
6,1,15,15,1.5,0.27181,1.4756,1,1.7999,0,0.86546
6,1,16,16,1.5,0.43733,1.6357,2,1.4436,1,0.58959
6,1,17,17,1.5,0.56558,2.2057,1,1.4319,1,0.578
6,1,18,18,1.5,0.48696,1.3855,3,1.7813,0,0.70098
6,1,19,19,1.5,0.67668,1.803,3,4.1319,1,2.4363
6,1,20,20,1.5,0.43152,1.58,3,2.575,0,0.50979
6,1,21,21,1.5,0.3435,1.9801,1,2.0861,1,0.85576
6,1,22,22,1.5,0.28797,1.6869,1,1.4694,1,0.51948
6,1,23,23,1.5,0.25744,1.0785,3,2.0989,0,0.62656
6,1,24,24,1.5,0.34869,1.1678,2,1.0939,0,1.7898
6,1,25,25,1.5,0.28815,1.4628,2,1.3252,0,0.62461
6,1,26,26,1.5,0.25897,1.2544,3,2.1847,1,0.60204
6,1,27,27,1.5,0.33696,1.3354,1,1.1313,0,2.2398
6,1,28,28,1.5,0.3117,1.4823,2,0.73948,1,1.1375
6,1,29,29,1.5,0.33283,1.5691,2,1.1943,0,1.6903
6,1,30,30,1.5,0.36829,1.3956,2,2.2255,0,2.2971
6,1,31,31,1.5,0.47403,2.1279,1,1.4258,1,0.56305
6,1,32,32,1.5,0.25926,1.3799,2,1.5393,0,0.8345
6,1,33,33,1.5,0.68828,1.7365,2,2.4562,1,0.50663
6,1,34,34,1.5,0.83727,1.747,3,3.2496,1,2.5515
6,1,35,35,1.5,0.51356,2.234,2,4.5522,1,2.0258
6,1,36,36,1.5,0.45797,1.6032,3,2.4441,1,2.2373
6,1,37,37,1.5,0.37003,1.398,3,2.2772,0,0.49893
6,1,38,38,1.5,0.39265,1.0045,2,1.1722,0,0.87324
6,1,39,39,1.5,0.52724,1.418,3,1.442,1,1.8877
6,1,40,40,1.5,0.30126,1.8202,2,1.5696,1,0.76923
6,1,41,41,1.5,0.50241,1.3088,3,1.1383,0,0.57294
6,1,42,42,1.5,0.3898,3.476,1,1.5202,1,1.0447
6,1,43,43,1.5,0.31954,1.4215,2,1.4973,0,0.5884
6,1,44,44,1.5,0.33547,2.4969,1,1.1717,0,0.56016
6,1,45,45,1.5,0.43604,1.2966,3,1.589,0,3.7843
6,1,46,46,1.5,0.60462,1.5997,2,1.8154,0,0.58922
6,1,47,47,1.5,0.43997,1.6767,2,2.9124,0,1.2496
6,1,48,48,1.5,0.22365,1.1777,2,3.5738,0,0.60402
6,1,49,49,1.5,0.51272,1.433,2,2.2283,1,0.42546
6,1,50,50,1.5,0.36537,1.6296,3,2.9625,1,0.80067
6,1,51,51,1.5,0.30361,1.6989,2,4.0393,1,0.65228
6,1,52,52,1.5,0.33191,1.3816,2,1.5773,1,0.589
6,1,53,53,1.5,0.34346,1.4431,3,4.8512,1,1.8362
6,1,54,54,1.5,0.40012,1.5709,3,1.6818,1,1.0146
6,1,55,55,1.5,0.4889,1.4998,2,6.7538,1,1.1588
6,1,56,56,1.5,0.57548,1.4276,3,1.8889,0,0.67261
6,1,57,57,1.5,0.35609,1.4006,3,1.6418,1,0.41226
6,1,58,58,1.5,0.48498,1.6709,2,6.1587,1,2.1147
6,1,59,59,1.5,0.58217,1.5176,2,1.8677,0,0.54024
6,1,60,60,1.5,0.28787,1.5249,2,4.424,1,0.57666
7,1,1,1,1.5,0.89621,1.2691,2,1.7443,1,2.3637
7,1,2,2,1.5,0.57486,1.5025,3,0.8947,1,3.0296
7,1,3,3,1.5,0.92778,1.1045,3,2.6594,0,2.5856
7,1,4,4,1.5,0.65452,1.5731,2,2.0357,1,1.2549
7,1,5,5,1.5,0.50598,1.6627,3,2.5243,1,4.233
7,1,6,6,1.5,0.58524,1.6093,2,3.2496,1,1.5268
7,1,7,7,1.5,0.80406,1.3605,2,1.6378,1,1.6719
7,1,8,8,1.5,0.50889,1.4768,2,2.3144,0,1.2918
7,1,9,9,1.5,0.50472,1.5742,3,1.461,0,4.2149
7,1,10,10,1.5,0.5284,1.1817,2,3.4025,0,1.8011
7,1,11,11,1.5,0.56116,1.3678,3,1.0432,1,1.2013
7,1,12,12,1.5,0.47903,1.2324,3,1.5664,0,1.5285
7,1,13,13,1.5,0.52907,1.645,2,1.9763,0,4.0133
7,1,14,14,1.5,0.54808,1.6047,2,1.6331,1,0.9527
7,1,15,15,1.5,0.63632,1.4219,2,1.6594,0,1.0127
7,1,16,16,1.5,0.51357,1.258,3,1.4747,1,1.2997
7,1,17,17,1.5,0.60548,1.1746,3,1.613,1,1.7661
7,1,18,18,1.5,0.56306,1.0575,3,2.2001,0,1.0638
7,1,19,19,1.5,0.46725,1.3947,2,1.0403,1,1.4876
7,1,20,20,1.5,0.78576,1.1831,2,2.4793,0,1.1641
7,1,21,21,1.5,0.54806,1.3923,2,2.0639,0,1.8915
7,1,22,22,1.5,0.56051,1.6049,2,3.1966,1,1.1747
7,1,23,23,1.5,0.58541,1.5085,3,1.3496,1,1.4547
7,1,24,24,1.5,0.43488,1.3466,2,1.6257,1,1.7875
7,1,25,25,1.5,0.50781,1.3396,3,1.4493,0,1.0154
7,1,26,26,1.5,0.43993,1.5878,2,2.6341,1,1.0882
7,1,27,27,1.5,0.38811,1.4118,2,5.2621,1,0.79249
7,1,28,28,1.5,1.0617,1.4789,2,1.5373,1,0.72003
7,1,29,29,1.5,0.44614,1.6191,3,1.2311,1,0.72799
7,1,30,30,1.5,0.47264,1.7138,3,1.9244,0,1.686
7,1,31,31,1.5,0.44727,1.4053,2,1.0958,0,4.4771
7,1,32,32,1.5,0.44895,1.7815,1,2.3628,1,0.97688
7,1,33,33,1.5,0.43063,1.1428,3,0.92193,1,1.3234
7,1,34,34,1.5,1.2084,1.2625,3,0.90171,0,2.3573
7,1,35,35,1.5,0.41754,1.4206,3,0.73327,1,0.75568
7,1,36,36,1.5,0.55712,1.0639,2,0.91471,0,1.1782
7,1,37,37,1.5,0.53606,1.1464,3,1.9757,0,1.8366
7,1,38,38,1.5,0.58838,1.1868,3,2.3582,1,2.196
7,1,39,39,1.5,0.52247,1.5125,2,0.94941,0,1.2042
7,1,40,40,1.5,0.39502,1.6568,2,1.3982,1,0.80152
7,1,41,41,1.5,0.35966,1.9295,1,5.6371,1,1.1869
7,1,42,42,1.5,0.46918,1.5219,2,2.5341,0,2.5756
7,1,43,43,1.5,0.39959,1.6196,2,1.6318,1,0.85136
7,1,44,44,1.5,0.42665,1.8649,3,1.0523,1,1.6705
7,1,45,45,1.5,0.3881,1.6242,3,1.0242,0,0.8751
7,1,46,46,1.5,0.43384,1.569,2,1.7066,0,1.9852
7,1,47,47,1.5,0.57672,1.48,3,1.9882,0,1.6571
7,1,48,48,1.5,0.53312,1.5947,2,2.2474,1,0.88947
7,1,49,49,1.5,0.47095,1.9733,2,3.5336,1,1.5265
7,1,50,50,1.5,0.63402,1.6824,2,1.4773,1,0.87571
7,1,51,51,1.5,0.50895,1.6899,3,0.66078,1,0.86712
7,1,52,52,1.5,1.1453,1.6798,3,1.5375,0,2.0704
7,1,53,53,1.5,1.1887,1.522,2,1.4223,0,1.4334
7,1,54,54,1.5,0.36985,1.4348,2,2.8061,1,0.96836
7,1,55,55,1.5,0.43364,1.6575,3,1.1859,1,0.69461
7,1,56,56,1.5,0.36627,1.1814,3,0.80368,0,0.83383
7,1,57,57,1.5,0.38315,1.4692,2,1.3072,1,0.67354
7,1,58,58,1.5,0.36595,1.1827,2,4.6917,1,1.4903
7,1,59,59,1.5,0.49486,1.5935,3,1.9386,1,2.0336
7,1,60,60,1.5,0.63463,1.5078,3,1.8365,0,0.80567
8,1,1,1,1.5,0.93601,1.4212,3,2.6718,0,3.3796
8,1,2,2,1.5,0.65517,2.048,3,2.4765,0,0.24784
8,1,3,3,1.5,0.77457,1.2503,2,2.7677,1,1.101
8,1,4,4,1.5,0.55033,2.6076,3,0.14547,0,0.16558
8,1,5,5,1.5,0.79168,1.7516,2,1.4554,0,3.0341
8,1,6,6,1.5,0.6182,1.771,3,1.3456,1,0.99062
8,1,7,7,1.5,1.1624,2.33,1,2.5104,1,1.1994
8,1,8,8,1.5,0.79727,1.5583,3,4.1371,0,0.4651
8,1,9,9,1.5,0.80269,0.94733,2,2.1266,0,0.038163
8,1,10,10,1.5,0.69697,1.6448,3,2.0237,1,1.5344
8,1,11,11,1.5,0.60931,1.5521,3,2.0313,1,0.11731
8,1,12,12,1.5,0.50596,1.7874,3,4.5448,0,3.1183
8,1,13,13,1.5,0.6526,1.2102,2,2.0353,0,0.92875
8,1,14,14,1.5,0.99873,1.2088,3,2.951,0,1.2296
8,1,15,15,1.5,0.69529,1.655,2,1.6218,1,1.9823
8,1,16,16,1.5,1.0784,1.5297,3,1.6003,0,0.70412
8,1,17,17,1.5,0.62036,1.4732,3,3.1726,1,2.3802
8,1,18,18,1.5,0.54936,1.6313,2,0.95165,1,0.84474
8,1,19,19,1.5,0.69323,1.3786,3,1.4249,0,1.5744
8,1,20,20,1.5,0.49057,1.4891,3,1.7594,1,1.0247
8,1,21,21,1.5,0.52678,1.5421,3,1.3497,0,0.96577
8,1,22,22,1.5,0.4369,1.8615,3,2.7257,1,0.68447
8,1,23,23,1.5,0.47496,1.7155,2,1.5015,0,0.88096
8,1,24,24,1.5,0.73426,1.695,2,1.0602,1,0.81417
8,1,25,25,1.5,0.67378,1.7014,3,3.0413,0,0.17063
8,1,26,26,1.5,0.81585,1.4801,2,6.9252,1,1.1009
8,1,27,27,1.5,0.84298,1.8265,2,1.251,1,0.62992
8,1,28,28,1.5,0.88197,1.1912,2,1.3001,0,0.77873
8,1,29,29,1.5,0.76005,0.87785,2,1.2006,0,0.63097
8,1,30,30,1.5,0.51497,1.7169,3,0.56569,1,1.956
8,1,31,31,1.5,0.48656,1.2603,2,0.75299,0,0.29627
8,1,32,32,1.5,0.34873,1.1305,2,0.90191,0,0.1964
8,1,33,33,1.5,0.38477,1.6711,2,2.2702,1,0.15472
8,1,34,34,1.5,1.9498,0.99476,1,2.6003,0,1.5001
8,1,35,35,1.5,0.52413,1.7775,1,2.876,1,0.82181
8,1,36,36,1.5,0.57694,1.8424,2,2.2493,1,0.11304
8,1,37,37,1.5,0.55163,1.3459,2,2.2754,0,2.1226
8,1,38,38,1.5,0.82322,1.3624,3,1.3994,1,1.2299
8,1,39,39,1.5,0.56384,1.4834,2,1.5291,0,0.60283
8,1,40,40,1.5,0.60231,1.5852,3,3.9168,0,1.2134
8,1,41,41,1.5,0.61156,1.7313,2,2.2503,1,2.9774
8,1,42,42,1.5,0.15133,1.3214,2,2.5223,0,1.1553
8,1,43,43,1.5,0.54846,2.0184,3,1.3281,1,1.929
8,1,44,44,1.5,0.52692,1.4538,2,1.5326,1,0.1284
8,1,45,45,1.5,1.0357,1.6196,3,2.6321,0,0.86583
8,1,46,46,1.5,0.50385,1.349,2,2.6532,0,0.39102
8,1,47,47,1.5,0.53433,1.2825,1,1.3655,1,0.25394
8,1,48,48,1.5,0.52303,1.4258,2,1.2382,0,0.48508
8,1,49,49,1.5,0.61183,1.5558,3,2.4845,0,1.4896
8,1,50,50,1.5,0.60455,1.7363,3,1.732,1,0.65177
8,1,51,51,1.5,0.3383,1.2992,3,1.2656,0,0.42919
8,1,52,52,1.5,0.56075,1.5172,3,1.1297,1,1.2879
8,1,53,53,1.5,0.39732,1.6806,2,1.5744,1,0.18686
8,1,54,54,1.5,0.84362,1.7158,2,1.715,0,0.38895
8,1,55,55,1.5,0.44438,1.144,2,1.1148,0,0.7654
8,1,56,56,1.5,0.41237,1.4569,2,1.5729,0,0.59799
8,1,57,57,1.5,0.69625,1.7437,1,2.3889,0,1.3441
8,1,58,58,1.5,0.52428,1.7517,3,2.5801,1,1.6634
8,1,59,59,1.5,0.61661,1.5317,2,1.3513,0,1.1931
8,1,60,60,1.5,0.55777,1.3022,2,2.1441,0,0.42575
9,1,1,1,1.5,0.47064,1.8732,2,1.2213,0,2.4479
9,1,2,2,1.5,0.51611,1.8679,2,1.2921,0,0.67596
9,1,3,3,1.5,0.52109,1.3736,3,2.9243,0,1.5439
9,1,4,4,1.5,1.6577,2.3372,1,2.38,1,1.489
9,1,5,5,1.5,1.2365,1.7703,2,2.7696,0,0.81456
9,1,6,6,1.5,0.59764,1.8051,2,1.6696,0,0.70708
9,1,7,7,1.5,0.80138,2.2828,2,3.7509,0,1.1394
9,1,8,8,1.5,0.60668,1.5875,2,1.2575,0,2.4004
9,1,9,9,1.5,1.4793,1.4659,2,2.1417,1,0.72234
9,1,10,10,1.5,1.0258,1.5902,2,4.4481,1,1.1213
9,1,11,11,1.5,0.72107,1.0731,2,1.7107,1,1.651
9,1,12,12,1.5,0.45274,1.4602,2,2.7998,0,0.82999
9,1,13,13,1.5,1.0679,1.4194,2,1.9807,1,1.3915
9,1,14,14,1.5,1.7147,0.99243,2,1.1982,1,0.49026
9,1,15,15,1.5,0.86875,1.032,2,1.6298,0,2.0409
9,1,16,16,1.5,0.57688,2.3039,2,1.9561,1,2.2449
9,1,17,17,1.5,0.91466,1.8453,2,1.1859,1,0.69435
9,1,18,18,1.5,0.36796,0.67148,2,1.2234,0,0.59833
9,1,19,19,1.5,0.82027,1.1335,2,1.1181,0,0.64453
9,1,20,20,1.5,0.68943,1.1749,2,1.463,0,0.75135
9,1,21,21,1.5,1.7111,1.0144,2,0.90383,0,0.57155
9,1,22,22,1.5,0.29715,1.242,2,1.0018,0,0.79417
9,1,23,23,1.5,1.7398,2.0341,2,2.415,1,1.1785
9,1,24,24,1.5,1.301,4.8421,1,2.4284,1,0.56217
9,1,25,25,1.5,1.1031,1.4085,2,1.5628,1,0.56633
9,1,26,26,1.5,0.65022,2.3314,2,3.0753,1,0.96979
9,1,27,27,1.5,0.55927,0.87895,3,4.3383,0,1.6174
9,1,28,28,1.5,0.67504,1.8389,2,3.0342,1,1.0789
9,1,29,29,1.5,1.2022,1.4436,2,0.94892,0,0.77876
9,1,30,30,1.5,1.6767,0.63786,1,1.4985,0,0.66429
9,1,31,31,1.5,0.81517,0.87983,2,1.2778,0,1.3155
9,1,32,32,1.5,0.56897,1.1085,2,2.3513,0,0.85293
9,1,33,33,1.5,0.57714,1.0055,3,1.9723,1,0.60845
9,1,34,34,1.5,0.6302,1.3209,2,1.2453,0,0.70457
9,1,35,35,1.5,1.0758,1.8386,2,1.1713,0,0.62177
9,1,36,36,1.5,0.77081,1.4856,2,1.5061,1,4.8233
9,1,37,37,1.5,0.54461,1.7179,2,1.342,0,0.96343
9,1,38,38,1.5,0.61835,1.1716,2,1.1834,0,0.50622
9,1,39,39,1.5,0.59345,2.1424,2,1.0737,1,0.54886
9,1,40,40,1.5,0.53701,1.5982,2,1.1018,1,1.5567
9,1,41,41,1.5,0.75821,1.0647,2,1.1534,1,0.64523
9,1,42,42,1.5,0.63351,1.1939,2,0.86172,1,0.72526
9,1,43,43,1.5,1.5996,1.6573,2,0.7486,0,0.75508
9,1,44,44,1.5,0.51189,1.7319,2,0.72669,0,0.665
9,1,45,45,1.5,0.67449,1.8643,2,0.72519,0,0.65258
9,1,46,46,1.5,0.93369,1.4822,2,0.86517,0,0.49058
9,1,47,47,1.5,0.38024,1.5033,2,1.282,1,1.0913
9,1,48,48,1.5,0.57736,1.0919,2,0.98832,1,0.38653
9,1,49,49,1.5,0.98734,0.59661,2,0.90285,0,0.73362
9,1,50,50,1.5,1.8904,1.3484,1,2.4778,0,0.76049
9,1,51,51,1.5,0.57357,1.8626,2,1.1986,1,0.6156
9,1,52,52,1.5,0.53251,1.9932,2,0.96173,0,0.53867
9,1,53,53,1.5,0.45974,1.5167,2,1.091,0,0.62472
9,1,54,54,1.5,0.48677,1.7114,2,0.95088,0,0.4326
9,1,55,55,1.5,0.64849,1.4295,2,0.78713,0,0.7354
9,1,56,56,1.5,0.66056,1.6274,2,1.0117,0,0.49178
9,1,57,57,1.5,0.76026,1.7789,2,3.2734,0,1.8685
9,1,58,58,1.5,0.43208,3.0921,2,0.89672,1,1.8887
9,1,59,59,1.5,1.6442,2.4653,2,1.3111,0,0.51673
9,1,60,60,1.5,5.3774,3.0572,1,2.2574,0,1.1327
10,1,1,1,1.5,0.91277,1.0678,3,2.4935,1,3.8745
10,1,2,2,1.5,1.4849,1.5055,2,2.4838,1,0.93936
10,1,3,3,1.5,0.61346,0.84437,2,1.6625,0,1.604
10,1,4,4,1.5,0.78362,1.0935,2,3.5028,0,1.2428
10,1,5,5,1.5,0.39561,0.99446,3,3.8749,0,2.0545
10,1,6,6,1.5,0.95939,0.87735,2,4.8754,1,2.7029
10,1,7,7,1.5,1.2359,0.83321,2,5.3551,1,1.6399
10,1,8,8,1.5,1.6979,0.65496,1,2.9,0,0.74109
10,1,9,9,1.5,1.5628,0.90335,3,3.8093,0,0.60721
10,1,10,10,1.5,1.4487,0.78106,2,3.7161,0,1.6886
10,1,11,11,1.5,1.8621,1.0027,2,4.5073,0,0.36461
10,1,12,12,1.5,2.0201,0.46825,1,1.7827,0,0.37799
10,1,13,13,1.5,1.3,0.59197,2,4.3108,0,0.51808
10,1,14,14,1.5,1.052,1.0571,3,3.2875,0,0.52681
10,1,15,15,1.5,1.3897,1.0978,3,2.7038,0,1.6036
10,1,16,16,1.5,1.5563,0.79776,1,3.3903,0,0.15563
10,1,17,17,1.5,1.2282,0.70224,1,2.4474,0,1.6522
10,1,18,18,1.5,1.1455,1.1676,3,2.0311,1,1.4781
10,1,19,19,1.5,2.6513,2.2054,1,2.2949,1,0.41342
10,1,20,20,1.5,2.1283,1.1006,3,3.1931,0,2.0081
10,1,21,21,1.5,2.099,1.106,2,1.6479,1,1.2511
10,1,22,22,1.5,1.3109,1.0646,3,1.8663,0,2.0654
10,1,23,23,1.5,0.87957,1.3439,2,1.9397,0,1.5467
10,1,24,24,1.5,1.0627,1.3056,3,2.9977,0,0.71359
10,1,25,25,1.5,0.95449,1.0223,3,2.5481,0,0.97827
10,1,26,26,1.5,0.74806,1.654,3,2.5075,0,1.2581
10,1,27,27,1.5,0.70219,1.6206,2,1.4576,0,1.7744
10,1,28,28,1.5,1.2575,1.6114,2,1.0777,1,1.4544
10,1,29,29,1.5,1.0963,1.2309,2,4.5395,0,1.2504
10,1,30,30,1.5,0.78365,1.3682,3,1.4559,0,1.0728
10,1,31,31,1.5,0.50071,1.9199,2,4.4318,0,1.9348
10,1,32,32,1.5,1.6948,1.9148,1,2.5507,1,0.61332
10,1,33,33,1.5,0.75818,2.0146,2,2.0374,1,0.59374
10,1,34,34,1.5,0.73901,1.1365,3,3.5966,0,0.88448
10,1,35,35,1.5,1.0632,1.5566,2,1.2105,0,0.60217
10,1,36,36,1.5,0.61825,1.5213,2,1.2325,0,1.2551
10,1,37,37,1.5,0.41046,1.4928,3,1.4013,1,0.84273
10,1,38,38,1.5,0.52483,1.3771,3,0.95136,0,1.3451
10,1,39,39,1.5,0.59821,1.58,2,1.4378,0,1.3825
10,1,40,40,1.5,0.6429,1.578,3,1.6869,0,1.3326
10,1,41,41,1.5,0.62675,1.5916,3,1.5606,1,0.35162
10,1,42,42,1.5,0.43639,1.4094,3,0.86381,0,0.92766
10,1,43,43,1.5,0.4868,1.2101,3,1.852,0,1.6681
10,1,44,44,1.5,0.47816,1.6059,3,1.3586,0,1.4625
10,1,45,45,1.5,0.38226,1.0553,3,1.9736,0,0.40848
10,1,46,46,1.5,0.35263,2.0847,3,2.379,1,0.26276
10,1,47,47,1.5,1.1368,1.3579,2,1.2623,0,0.80358
10,1,48,48,1.5,0.50727,1.2398,3,1.5857,1,0.84335
10,1,49,49,1.5,1.4597,1.5383,2,2.8091,1,1.3085
10,1,50,50,1.5,0.5444,1.6808,3,1.5257,1,1.1122
10,1,51,51,1.5,0.58776,1.935,3,1.2421,1,0.51338
10,1,52,52,1.5,0.45896,2.2278,2,1.9762,1,0.42371
10,1,53,53,1.5,0.77218,1.588,2,2.2319,0,0.59213
10,1,54,54,1.5,0.67994,1.7071,3,1.3614,0,0.88938
10,1,55,55,1.5,0.53603,1.1848,2,1.4184,0,0.41777
10,1,56,56,1.5,0.73224,1.155,3,2.7105,0,1.0233
10,1,57,57,1.5,0.67541,1.7659,3,1.2269,1,0.33914
10,1,58,58,1.5,0.65967,1.7912,2,1.3363,1,0.54504
10,1,59,59,1.5,0.70836,1.3268,3,1.4106,0,0.9262
10,1,60,60,1.5,0.62751,1.6546,2,1.4082,1,0.96199
11,1,1,1,1.5,1.5264,1.5258,3,1.6637,0,2.9002
11,1,2,2,1.5,1.8009,1.9956,3,2.5393,1,1.507
11,1,3,3,1.5,2.341,2.196,2,2.2888,1,1.1204
11,1,4,4,1.5,1.7664,1.1694,2,3.2579,0,0.98122
11,1,5,5,1.5,1.6496,1.4696,2,3.9569,1,2.341
11,1,6,6,1.5,0.97981,2.3312,1,2.6366,1,0.94094
11,1,7,7,1.5,1.0726,1.3985,1,1.4403,1,0.80979
11,1,8,8,1.5,0.79365,1.9539,3,1.8197,1,1.5798
11,1,9,9,1.5,0.78826,2.2364,3,3.4665,0,1.1031
11,1,10,10,1.5,0.59333,1.9021,2,1.269,0,0.8809
11,1,11,11,1.5,0.49261,1.9914,2,1.1853,0,0.6447
11,1,12,12,1.5,1.2169,1.3794,2,1.0377,0,0.90921
11,1,13,13,1.5,1.6025,2.2549,1,1.3197,1,1.1327
11,1,14,14,1.5,2.4363,1.6046,3,0.97031,0,1.2343
11,1,15,15,1.5,0.91429,1.8209,3,0.86914,1,0.83258
11,1,16,16,1.5,0.69915,1.893,1,0.99935,0,1.3676
11,1,17,17,1.5,0.54932,1.6186,3,1.9305,1,2.2155
11,1,18,18,1.5,1.0607,1.0399,3,1.338,0,1.0087
11,1,19,19,1.5,1.3831,2.3443,2,2.4627,0,3.1013
11,1,20,20,1.5,1.015,1.8197,1,0.93159,0,0.99087
11,1,21,21,1.5,0.51979,1.3976,1,1.5022,1,2.1054
11,1,22,22,1.5,0.48832,1.9127,3,1.4777,1,1.4136
11,1,23,23,1.5,0.95411,1.7972,3,1.0998,1,3.0417
11,1,24,24,1.5,0.8712,1.11,3,0.79856,1,0.80434
11,1,25,25,1.5,0.55448,1.4984,2,2.064,0,1.5163
11,1,26,26,1.5,0.8023,1.2451,2,2.313,0,0.56391
11,1,27,27,1.5,0.54348,1.6157,3,1.0414,1,2.5127
11,1,28,28,1.5,0.4664,1.6071,3,0.83569,0,2.8327
11,1,29,29,1.5,0.46791,1.6336,3,0.72797,1,5.7643
11,1,30,30,1.5,0.5859,1.6844,1,1.278,1,1.5164
11,1,31,31,1.5,0.6088,1.8157,2,2.039,1,4.608
11,1,32,32,1.5,3.1008,1.4901,2,0.74948,0,0.60488
11,1,33,33,1.5,0.50148,1.5699,1,1.1823,1,0.89143
11,1,34,34,1.5,0.4996,1.3934,3,0.81418,0,1.2904
11,1,35,35,1.5,0.47684,1.5419,2,1.8367,1,1.4941
11,1,36,36,1.5,0.41627,1.1572,1,1.2367,0,0.72036
11,1,37,37,1.5,0.51837,1.2581,2,1.0642,0,0.9771
11,1,38,38,1.5,1.0851,0.91803,2,1.4577,0,1.1863
11,1,39,39,1.5,0.48045,1.3546,3,0.88369,1,1.0808
11,1,40,40,1.5,0.45,1.1824,3,1.5419,0,0.87343
11,1,41,41,1.5,0.54924,1.6437,3,2.1383,0,2.8942
11,1,42,42,1.5,0.47555,1.9275,3,0.88956,1,1.8122
11,1,43,43,1.5,0.44463,1.4438,3,1.0513,0,0.8202
11,1,44,44,1.5,0.38847,1.6379,2,1.2956,0,1.9164
11,1,45,45,1.5,0.29617,1.596,3,1.2496,1,1.1416
11,1,46,46,1.5,0.34093,1.2771,3,0.91115,0,1.1042
11,1,47,47,1.5,0.82399,1.5887,2,1.7966,1,0.96559
11,1,48,48,1.5,0.40645,1.9383,1,1.1957,1,1.6662
11,1,49,49,1.5,0.38479,1.4341,2,0.99278,1,1.0507
11,1,50,50,1.5,0.3963,1.9082,2,1.1729,1,0.72421
11,1,51,51,1.5,0.41202,1.6934,2,1.7015,0,0.72973
11,1,52,52,1.5,0.47141,1.2374,1,1.2455,0,0.80538
11,1,53,53,1.5,0.44957,1.4066,2,1.648,1,0.62695
11,1,54,54,1.5,0.35737,1.0774,1,1.2245,0,0.63637
11,1,55,55,1.5,0.44483,1.6566,3,2.8477,1,1.2004
11,1,56,56,1.5,0.40865,1.3279,3,0.96162,1,0.6674
11,1,57,57,1.5,0.29743,1.6674,1,1.3161,0,0.642
11,1,58,58,1.5,0.3601,1.755,2,2.2206,0,1.4928
11,1,59,59,1.5,0.56468,1.8554,2,2.8574,1,1.1447
11,1,60,60,1.5,0.47692,2.2179,2,1.0771,0,1.3153
12,1,1,1,1.5,2.3802,1.3522,2,3.5939,0,1.7832
12,1,2,2,1.5,0.82118,1.76,2,4.151,1,2.2396
12,1,3,3,1.5,1.0467,1.0942,3,3.9491,0,4.0752
12,1,4,4,1.5,0.9239,1.5867,3,1.7948,0,2.5521
12,1,5,5,1.5,1.6424,1.9257,1,1.3492,1,3.6408
12,1,6,6,1.5,0.94528,1.3671,3,1.0174,0,2.5676
12,1,7,7,1.5,1.1172,1.1687,2,1.6938,0,3.0518
12,1,8,8,1.5,0.92105,1.4092,3,1.3015,1,3.7307
12,1,9,9,1.5,0.77425,1.5001,3,6.2549,1,1.8486
12,1,10,10,1.5,0.97497,1.3275,2,2.7901,0,1.5817
12,1,11,11,1.5,0.72508,1.4404,3,1.0226,1,2.4997
12,1,12,12,1.5,0.70701,1.5265,3,1.2385,1,4.3473
12,1,13,13,1.5,0.63585,1.3345,2,1.3429,1,2.0512
12,1,14,14,1.5,0.59898,1.0304,2,1.4019,0,0.98097
12,1,15,15,1.5,0.72993,0.88292,2,1.3045,0,1.084
12,1,16,16,1.5,0.77889,1.2316,2,1.5646,1,3.7517
12,1,17,17,1.5,0.36921,1.3106,3,0.78864,1,1.7498
12,1,18,18,1.5,0.69697,1.5581,3,1.9372,0,1.9184
12,1,19,19,1.5,0.5656,1.3186,2,2.1803,1,2.9029
12,1,20,20,1.5,0.45607,1.0502,2,1.1931,0,1.4525
12,1,21,21,1.5,0.54206,1.3775,2,2.2661,1,2.0623
12,1,22,22,1.5,0.61688,1.5186,3,0.85605,0,4.4747
12,1,23,23,1.5,0.5421,1.465,2,1.128,1,1.5541
12,1,24,24,1.5,0.53883,1.6623,3,1.6244,0,1.6356
12,1,25,25,1.5,0.674,1.4141,2,1.4257,0,2.4007
12,1,26,26,1.5,0.72603,1.2404,3,1.8496,1,1.3896
12,1,27,27,1.5,0.49143,1.1771,1,0.81542,0,4.7426
12,1,28,28,1.5,0.50463,1.4497,3,1.1781,0,1.9792
12,1,29,29,1.5,0.27662,1.0297,1,0.87756,0,2.1905
12,1,30,30,1.5,0.51188,1.3064,2,1.7859,1,2.8316
12,1,31,31,1.5,0.53408,1.6202,3,3.407,1,1.7926
12,1,32,32,1.5,0.58513,1.2094,3,1.0629,1,2.3147
12,1,33,33,1.5,0.45228,1.2468,2,1.226,0,0.96395
12,1,34,34,1.5,0.49215,1.3538,2,1.0459,1,1.7754
12,1,35,35,1.5,0.47244,1.2129,1,2.5254,0,2.2599
12,1,36,36,1.5,0.39739,1.4044,3,1.9588,1,2.611
12,1,37,37,1.5,0.37319,1.4875,3,0.69631,1,1.0402
12,1,38,38,1.5,0.29769,1.2678,2,1.8437,0,1.4509
12,1,39,39,1.5,0.47731,1.2923,2,1.1762,1,3.8516
12,1,40,40,1.5,0.35261,1.422,3,1.1968,0,3.6389
12,1,41,41,1.5,0.5676,1.2956,2,2.0374,1,2.519
12,1,42,42,1.5,0.38438,1.3584,1,2.6751,0,1.747
12,1,43,43,1.5,0.99499,1.2417,2,1.1874,1,5.3088
12,1,44,44,1.5,0.54263,1.54,3,0.81175,0,2.4129
12,1,45,45,1.5,0.49675,1.5079,3,1.1111,1,1.1791
12,1,46,46,1.5,0.46972,1.6101,3,0.98809,1,3.6857
12,1,47,47,1.5,0.48132,1.5427,3,1.6628,0,2.7915
12,1,48,48,1.5,0.45317,1.4477,3,1.1259,1,1.0894
12,1,49,49,1.5,0.30585,1.4504,3,1.0926,1,1.3254
12,1,50,50,1.5,0.50323,1.3732,3,1.1104,1,1.277
12,1,51,51,1.5,0.58871,1.8365,2,1.1945,1,1.2654
12,1,52,52,1.5,0.35102,1.2967,2,1.0125,0,1.5512
12,1,53,53,1.5,0.33778,1.536,2,1.4572,0,1.2855
12,1,54,54,1.5,0.45122,1.9708,2,1.0191,1,1.2458
12,1,55,55,1.5,0.38979,1.4876,3,1.3208,0,2.184
12,1,56,56,1.5,0.77267,0.91195,1,1.1759,1,2.3631
12,1,57,57,1.5,0.50997,1.503,2,1.1702,0,1.9703
12,1,58,58,1.5,0.4934,1.767,2,1.0903,1,0.93701
12,1,59,59,1.5,0.37559,1.4277,3,1.7865,0,3.594
12,1,60,60,1.5,0.34382,1.1809,2,1.1394,0,3.174
13,1,1,1,3.0,2.1806,4.3034,3,3.4484,1,2.8385
13,1,2,2,3.0,1.4791,2.7402,3,1.5836,0,1.5288
13,1,3,3,3.0,1.2488,3.7456,3,1.8097,0,2.8873
13,1,4,4,3.0,1.1661,2.6542,2,1.9162,1,3.6023
13,1,5,5,3.0,2.7908,2.994,3,2.4107,0,1.25
13,1,6,6,3.0,1.1863,2.7335,3,2.8256,0,1.3587
13,1,7,7,3.0,1.8117,3.5148,2,1.9996,0,7.0396
13,1,8,8,3.0,0.88983,2.2489,3,1.8139,1,4.8541
13,1,9,9,3.0,0.84852,2.8038,3,2.1668,0,2.552
13,1,10,10,3.0,2.7884,3.0041,3,4.7784,1,4.8815
13,1,11,11,3.0,1.6634,4.4908,3,5.2277,0,3.1049
13,1,12,12,3.0,1.0838,3.117,2,2.0378,1,1.6189
13,1,13,13,3.0,1.0021,2.0197,3,4.2928,0,4.6427
13,1,14,14,3.0,1.5052,3.4963,2,1.6117,1,1.1275
13,1,15,15,3.0,2.5942,3.1984,1,3.2765,1,1.3462
13,1,16,16,3.0,1.0334,3.5681,2,1.8986,1,1.1259
13,1,17,17,3.0,0.99164,3.2126,2,1.4996,1,0.99086
13,1,18,18,3.0,0.81713,2.4314,3,1.8372,0,2.4819
13,1,19,19,3.0,2.2058,3.2317,3,1.6021,0,1.9052
13,1,20,20,3.0,0.83215,2.4808,3,1.7512,0,1.3046
13,1,21,21,3.0,0.63444,2.2826,3,1.588,0,6.9846
13,1,22,22,3.0,0.63262,2.3806,3,2.4151,0,2.2162
13,1,23,23,3.0,1.4977,2.5297,2,1.5019,0,0.98041
13,1,24,24,3.0,0.77635,3.116,3,2.7776,1,1.3244
13,1,25,25,3.0,1.4062,2.7104,2,1.6599,0,1.4261
13,1,26,26,3.0,1.1056,1.7864,3,1.5681,0,1.43
13,1,27,27,3.0,0.75486,3.3737,3,1.9305,1,1.0044
13,1,28,28,3.0,0.82329,3.1504,2,1.4362,1,1.2199
13,1,29,29,3.0,1.3586,3.162,2,1.4492,1,0.95301
13,1,30,30,3.0,0.9338,2.9431,3,1.6722,0,0.85823
13,1,31,31,3.0,0.71267,3.018,3,2.6629,1,1.0641
13,1,32,32,3.0,0.99509,2.9536,1,2.5663,0,2.2292
13,1,33,33,3.0,0.91397,2.6588,3,1.883,0,1.8275
13,1,34,34,3.0,0.59369,2.4422,3,1.7354,0,2.7163
13,1,35,35,3.0,0.56422,2.2536,3,1.7433,0,1.2133
13,1,36,36,3.0,1.4652,2.8935,1,1.4849,0,1.9427
13,1,37,37,3.0,0.74665,2.0318,3,1.1505,0,1.1188
13,1,38,38,3.0,1.3493,4.0589,1,2.629,1,1.0762
13,1,39,39,3.0,1.1339,2.7557,2,1.4181,1,2.368
13,1,40,40,3.0,0.72921,2.5927,2,1.4863,0,1.0188
13,1,41,41,3.0,0.53288,2.781,2,1.4899,1,1.1356
13,1,42,42,3.0,0.65778,2.7766,3,2.0968,1,1.4527
13,1,43,43,3.0,0.668,2.4329,3,7.4132,0,2.116
13,1,44,44,3.0,0.93549,2.545,3,1.5879,1,1.7831
13,1,45,45,3.0,0.61706,2.444,2,1.4617,0,1.0279
13,1,46,46,3.0,0.51898,2.7468,3,1.3763,0,0.91263
13,1,47,47,3.0,0.62868,2.8938,2,1.4348,1,1.0185
13,1,48,48,3.0,0.55647,2.8643,2,1.3004,1,0.85596
13,1,49,49,3.0,0.65008,2.1815,3,1.2256,0,1.8262
13,1,50,50,3.0,1.5506,1.9672,3,1.3031,0,0.70617
13,1,51,51,3.0,0.77201,2.3866,3,1.2803,1,1.0508
13,1,52,52,3.0,0.59374,2.1548,3,1.6687,0,2.4054
13,1,53,53,3.0,0.69495,2.718,3,1.8398,1,1.5212
13,1,54,54,3.0,0.64388,3.4167,2,3.5852,1,3.3541
13,1,55,55,3.0,0.73293,3.4068,2,1.3796,0,3.2883
13,1,56,56,3.0,0.50933,3.0524,2,1.5517,1,0.9564
13,1,57,57,3.0,0.61238,2.4697,2,1.3667,1,0.97837
13,1,58,58,3.0,0.58053,2.8459,2,1.3369,1,0.9086
13,1,59,59,3.0,0.50689,2.826,3,1.359,1,0.73832
13,1,60,60,3.0,0.55046,2.3936,3,2.2871,0,1.6804
14,1,1,1,3.0,2.3422,2.8854,2,2.2134,1,1.5277
14,1,2,2,3.0,1.8235,2.4095,2,1.7104,1,0.67666
14,1,3,3,3.0,0.66508,2.7668,2,1.463,1,0.95394
14,1,4,4,3.0,1.0096,2.0033,3,2.7684,1,1.7646
14,1,5,5,3.0,1.26,2.5273,2,1.798,1,0.3011
14,1,6,6,3.0,3.6431,3.1207,1,2.3159,1,0.80455
14,1,7,7,3.0,5.3519,2.5227,2,1.4572,0,1.2237
14,1,8,8,3.0,2.1011,3.6322,3,2.1892,0,5.0074
14,1,9,9,3.0,2.3515,3.0563,3,1.8687,1,0.61739
14,1,10,10,3.0,4.7233,2.9921,3,1.259,0,0.7625
14,1,11,11,3.0,9.0039,3.0683,2,1.9006,0,0.84181
14,1,12,12,3.0,1.061,3.3518,2,1.4264,1,0.50078
14,1,13,13,3.0,0.79747,2.3456,3,2.2262,0,1.2241
14,1,14,14,3.0,0.93039,2.0058,3,2.1211,0,1.0318
14,1,15,15,3.0,0.90868,2.8263,3,1.2472,1,0.25171
14,1,16,16,3.0,0.63567,2.4828,2,1.0876,1,0.66056
14,1,17,17,3.0,0.6781,1.3677,1,3.8691,0,0.2647
14,1,18,18,3.0,3.6607,2.4586,2,1.5964,0,0.30443
14,1,19,19,3.0,0.69792,3.9675,1,1.8752,1,0.14931
14,1,20,20,3.0,0.47435,2.3152,3,0.87431,0,1.2017
14,1,21,21,3.0,0.73358,2.456,2,1.2699,0,1.182
14,1,22,22,3.0,0.98257,2.6179,2,1.0131,0,0.51474
14,1,23,23,3.0,0.5398,2.651,2,0.92547,1,0.57619
14,1,24,24,3.0,0.73441,2.7325,2,1.124,0,1.4123
14,1,25,25,3.0,0.8353,2.9824,3,1.5288,0,0.80341
14,1,26,26,3.0,0.69666,2.7449,3,1.4732,1,5.698
14,1,27,27,3.0,0.6247,2.664,2,1.2655,1,0.56624
14,1,28,28,3.0,0.77621,3.0398,2,1.1178,1,1.3318
14,1,29,29,3.0,0.97623,3.0773,2,1.0845,0,0.5441
14,1,30,30,3.0,1.1339,2.4433,2,1.1614,1,0.61596
14,1,31,31,3.0,1.3279,3.0034,2,2.8654,1,1.9769
14,1,32,32,3.0,0.80734,2.901,2,0.92528,1,0.15034
14,1,33,33,3.0,1.7935,2.3632,2,0.75063,1,2.283
14,1,34,34,3.0,0.87008,3.3966,2,1.3987,1,1.6147
14,1,35,35,3.0,0.84144,3.414,2,0.89978,0,2.0439
14,1,36,36,3.0,1.3273,1.9399,2,1.6101,0,1.2386
14,1,37,37,3.0,0.581,2.7922,2,0.85812,0,1.1394
14,1,38,38,3.0,1.1698,3.6215,1,1.5269,1,0.43929
14,1,39,39,3.0,0.83818,2.8609,2,0.74825,1,2.1414
14,1,40,40,3.0,0.65708,2.1748,2,1.1732,0,0.78541
14,1,41,41,3.0,0.44937,3.0307,2,1.4012,1,0.21722
14,1,42,42,3.0,0.58607,4.1597,1,1.8177,1,0.45406
14,1,43,43,3.0,0.97565,3.1011,2,0.55122,1,1.1697
14,1,44,44,3.0,0.99336,2.9273,2,0.49766,0,1.6294
14,1,45,45,3.0,1.0319,2.5336,3,1.9504,1,0.95244
14,1,46,46,3.0,1.9188,2.8173,2,0.86251,1,0.5766
14,1,47,47,3.0,0.98335,2.6682,2,0.71362,1,0.3035
14,1,48,48,3.0,1.0147,3.3451,3,2.0238,1,0.14598
14,1,49,49,3.0,2.3148,3.7284,3,1.0596,1,0.2
14,1,50,50,3.0,0.68181,2.8927,2,1.1703,1,0.19711
14,1,51,51,3.0,1.1136,3.1932,3,2.6587,1,1.5094
14,1,52,52,3.0,0.61488,3.0424,2,1.8074,1,1.3236
14,1,53,53,3.0,0.92164,3.4864,2,0.85035,1,2.0189
14,1,54,54,3.0,0.53894,3.2008,2,1.6487,1,0.61552
14,1,55,55,3.0,1.6757,3.8121,3,1.221,1,0.59679
14,1,56,56,3.0,1.0341,3.093,2,1.1086,1,1.777
14,1,57,57,3.0,0.85916,3.5405,2,0.76721,0,1.131
14,1,58,58,3.0,1.1843,2.5568,2,0.71972,0,0.55956
14,1,59,59,3.0,0.985,3.7197,1,1.0494,1,0.51663
14,1,60,60,3.0,0.59665,3.0832,3,1.2859,1,0.39457
15,1,1,1,3.0,1.5984,2.9307,3,1.9019,0,4.1298
15,1,2,2,3.0,1.5998,2.5194,3,1.9918,1,2.4355
15,1,3,3,3.0,1.528,2.4033,3,2.9294,0,5.4005
15,1,4,4,3.0,4.0155,2.6998,2,5.5243,0,5.2798
15,1,5,5,3.0,2.5093,2.2481,2,2.4493,1,4.2048
15,1,6,6,3.0,0.93147,2.5952,2,2.1746,1,0.50971
15,1,7,7,3.0,1.2157,1.9461,2,1.5397,0,0.7846
15,1,8,8,3.0,0.82237,2.0244,3,1.7845,1,3.217
15,1,9,9,3.0,1.1672,2.7308,3,6.1132,0,2.5783
15,1,10,10,3.0,0.75852,2.726,2,2.0598,0,1.4368
15,1,11,11,3.0,0.77741,2.678,3,1.7635,0,2.4293
15,1,12,12,3.0,0.95688,2.6367,2,2.7541,0,1.742
15,1,13,13,3.0,1.3572,3.0491,3,1.5238,1,1.1733
15,1,14,14,3.0,0.64874,2.8681,2,0.8393,0,0.98703
15,1,15,15,3.0,1.3091,3.9893,2,2.6023,1,1.2525
15,1,16,16,3.0,1.3091,3.314,3,2.2381,0,1.6679
15,1,17,17,3.0,1.4966,3.1418,3,4.9579,1,6.9009
15,1,18,18,3.0,0.53894,2.7754,3,2.8593,0,0.97092
15,1,19,19,3.0,0.86144,2.7799,3,1.6501,0,0.85381
15,1,20,20,3.0,1.7083,3.6374,3,4.7763,0,3.9659
15,1,21,21,3.0,1.4566,3.173,3,1.8052,0,2.1823
15,1,22,22,3.0,0.83944,2.7748,3,3.7455,1,0.49682
15,1,23,23,3.0,1.2618,3.6287,2,0.74797,1,1.1656
15,1,24,24,3.0,0.8846,2.9817,3,2.0976,0,1.8172
15,1,25,25,3.0,1.446,3.9917,2,2.4038,0,2.7676
15,1,26,26,3.0,0.64,2.701,2,2.1764,0,8.9374
15,1,27,27,3.0,2.0503,2.757,3,14.195,0,0.07396
15,1,28,28,3.0,1.5065,2.1108,3,2.512,0,0.18846
15,1,29,29,3.0,1.243,3.5016,3,2.475,1,0.39604
15,1,30,30,3.0,0.75273,2.3583,3,2.3606,0,0.28701
15,1,31,31,3.0,0.70905,3.1282,3,1.9851,1,1.1665
15,1,32,32,3.0,0.54063,3.0768,3,2.0592,0,0.26105
15,1,33,33,3.0,0.85612,2.9241,3,0.82115,1,0.58386
15,1,34,34,3.0,0.61242,2.9065,3,1.8436,0,0.1383
15,1,35,35,3.0,0.70057,3.0948,3,1.6723,0,0.1592
15,1,36,36,3.0,0.81812,3.0076,3,4.4195,0,0.30086
15,1,37,37,3.0,0.46416,3.0423,2,2.1086,1,4.5853
15,1,38,38,3.0,1.0872,3.3594,3,2.8834,1,2.0159
15,1,39,39,3.0,1.2077,3.0501,3,3.1112,0,1.0105
15,1,40,40,3.0,0.55568,2.8747,3,2.3582,1,0.37198
15,1,41,41,3.0,0.45865,2.7028,3,3.2537,1,6.3019
15,1,42,42,3.0,3.9772,3.0196,2,4.2533,1,0.6145
15,1,43,43,3.0,0.42945,3.2191,3,0.63861,0,0.62395
15,1,44,44,3.0,0.53214,3.3934,3,2.7086,1,4.8462
15,1,45,45,3.0,0.64708,3.4826,2,2.4263,1,1.5478
15,1,46,46,3.0,1.3622,2.8531,2,7.7671,0,0.95148
15,1,47,47,3.0,2.1783,4.7634,2,3.0958,1,0.99922
15,1,48,48,3.0,2.2285,2.8752,3,2.6094,0,1.4967
15,1,49,49,3.0,2.0956,2.9262,3,2.3726,0,0.69448
15,1,50,50,3.0,0.75607,2.975,2,2.6202,0,0.14143
15,1,51,51,3.0,0.92791,2.9673,3,5.8996,0,1.5331
15,1,52,52,3.0,1.301,3.2311,2,1.8124,1,0.54052
15,1,53,53,3.0,1.4152,3.1318,2,1.6513,0,0.86767
15,1,54,54,3.0,0.85512,3.5617,3,3.0089,0,2.9715
15,1,55,55,3.0,1.1761,3.4016,2,3.2498,0,0.97702
15,1,56,56,3.0,1.1412,3.0256,3,2.0336,1,2.8278
15,1,57,57,3.0,0.52113,2.5732,3,0.84432,0,0.86735
15,1,58,58,3.0,0.48261,3.0063,3,2.1807,0,0.62853
15,1,59,59,3.0,0.67445,3.0896,3,1.4674,0,0.529
15,1,60,60,3.0,0.80553,3.412,2,8.7476,0,5.8016
16,1,1,1,3.0,3.0301,2.7002,3,2.1625,0,2.8893
16,1,2,2,3.0,2.4626,2.1388,3,1.4573,1,1.3618
16,1,3,3,3.0,3.45,2.3149,2,2.2369,1,2.3794
16,1,4,4,3.0,1.7972,2.5045,2,2.8173,1,0.7806
16,1,5,5,3.0,1.5097,2.4511,3,1.8516,1,2.3917
16,1,6,6,3.0,1.2256,2.2631,3,6.9861,0,0.94324
16,1,7,7,3.0,1.6295,2.2416,3,2.7231,0,3.1307
16,1,8,8,3.0,0.87881,2.2191,2,2.2287,0,0.77596
16,1,9,9,3.0,0.71075,2.3796,2,2.2265,1,0.59939
16,1,10,10,3.0,0.62105,2.7104,3,1.8613,1,1.9011
16,1,11,11,3.0,0.97252,1.7745,2,2.5859,0,0.58962
16,1,12,12,3.0,0.81525,1.6919,3,0.98733,0,0.69626
16,1,13,13,3.0,0.73111,2.5831,3,2.3137,1,0.8644
16,1,14,14,3.0,0.63236,2.3431,2,2.7737,1,0.70625
16,1,15,15,3.0,1.2606,2.7401,2,1.3064,0,2.4242
16,1,16,16,3.0,0.74937,1.5546,2,1.3081,0,0.73842
16,1,17,17,3.0,0.75979,2.2139,1,2.5625,0,1.2636
16,1,18,18,3.0,0.55463,2.4987,2,1.1497,1,0.56685
16,1,19,19,3.0,0.57128,2.6358,3,2.0274,0,1.0134
16,1,20,20,3.0,0.72921,2.4815,2,1.2406,0,0.89865
16,1,21,21,3.0,0.75683,2.6634,3,2.2378,0,0.9693
16,1,22,22,3.0,0.63106,2.1791,3,2.5261,1,2.8615
16,1,23,23,3.0,1.0639,2.1442,1,2.5376,0,0.54287
16,1,24,24,3.0,0.94304,2.8654,3,1.1743,1,1.237
16,1,25,25,3.0,0.74369,3.128,3,0.98532,0,1.2449
16,1,26,26,3.0,0.67409,2.6522,3,1.7776,1,0.56286
16,1,27,27,3.0,0.60312,2.3085,2,1.0234,1,0.53579
16,1,28,28,3.0,2.695,2.374,2,2.6466,0,1.3521
16,1,29,29,3.0,0.35392,2.0859,3,2.6668,0,0.80447
16,1,30,30,3.0,1.2105,2.5533,3,1.6161,1,0.72824
16,1,31,31,3.0,0.60865,3.2275,3,1.2223,1,0.62285
16,1,32,32,3.0,0.67246,2.6743,3,1.2584,0,1.1134
16,1,33,33,3.0,0.63917,2.9872,3,1.441,1,2.6616
16,1,34,34,3.0,0.97428,3.4756,3,1.6182,1,2.243
16,1,35,35,3.0,0.85884,3.0531,3,1.7387,1,0.92175
16,1,36,36,3.0,0.64541,2.0562,2,3.4583,0,1.0066
16,1,37,37,3.0,1.4372,2.4201,2,1.4418,0,0.58716
16,1,38,38,3.0,1.0963,2.2931,2,1.2735,0,0.69797
16,1,39,39,3.0,1.7352,2.5299,1,1.0266,1,3.041
16,1,40,40,3.0,1.6986,3.2684,3,2.0255,1,1.648
16,1,41,41,3.0,1.3468,2.9555,3,2.0177,1,0.76554
16,1,42,42,3.0,1.1068,3.2864,2,1.1521,1,0.54419
16,1,43,43,3.0,0.97793,1.817,1,1.5403,0,0.52361
16,1,44,44,3.0,0.67355,3.0875,2,1.2526,1,0.45836
16,1,45,45,3.0,0.47611,3.1788,3,1.7616,1,1.3889
16,1,46,46,3.0,1.1867,3.2841,2,1.2984,1,0.54053
16,1,47,47,3.0,0.58627,2.4231,3,1.4068,1,0.98609
16,1,48,48,3.0,0.63822,2.6121,2,2.3244,1,0.56029
16,1,49,49,3.0,0.87768,2.5041,2,2.1934,1,0.81187
16,1,50,50,3.0,1.256,2.9728,2,2.731,0,3.777
16,1,51,51,3.0,2.474,2.7717,1,2.6543,1,0.76694
16,1,52,52,3.0,0.73861,2.3611,2,2.1123,0,1.089
16,1,53,53,3.0,0.65937,2.7784,2,1.2243,0,0.54968
16,1,54,54,3.0,0.51735,2.7951,2,1.2241,0,4.0504
16,1,55,55,3.0,0.83759,2.7475,1,1.5012,0,0.60531
16,1,56,56,3.0,1.0094,3.24,3,1.6297,1,0.68014
16,1,57,57,3.0,0.82186,2.5732,3,3.8454,0,1.2587
16,1,58,58,3.0,0.57003,3.2342,3,1.3625,1,0.71712
16,1,59,59,3.0,0.71209,3.1686,3,1.0634,0,1.3774
16,1,60,60,3.0,0.62591,2.2146,1,0.86289,0,0.71403
17,1,1,1,3.0,1.4367,3.207,3,3.0066,0,2.7429
17,1,2,2,3.0,2.1496,2.7317,2,4.7604,0,4.143
17,1,3,3,3.0,2.9288,3.7115,3,2.8078,1,1.6703
17,1,4,4,3.0,3.065,3.7027,2,2.7374,1,1.1657
17,1,5,5,3.0,1.6136,2.9789,3,2.7489,0,1.9033
17,1,6,6,3.0,1.5681,2.568,3,5.3397,0,5.0407
17,1,7,7,3.0,1.2979,2.5055,3,1.9699,1,4.2927
17,1,8,8,3.0,1.2833,1.9425,3,1.6491,0,1.5017
17,1,9,9,3.0,1.0312,2.257,3,1.9454,1,1.6759
17,1,10,10,3.0,1.3655,3.0451,3,3.4607,0,1.1337
17,1,11,11,3.0,1.0436,2.4659,2,3.4003,0,1.5651
17,1,12,12,3.0,1.1313,3.6186,3,1.8125,1,1.978
17,1,13,13,3.0,0.7066,3.3505,2,1.8529,1,1.5305
17,1,14,14,3.0,1.0897,3.1122,3,2.4858,1,2.5153
17,1,15,15,3.0,0.62975,3.0702,2,1.7032,0,1.9813
17,1,16,16,3.0,0.56781,2.6453,3,2.4378,0,1.9187
17,1,17,17,3.0,0.94374,3.341,2,2.1938,1,4.4375
17,1,18,18,3.0,0.66219,2.244,2,5.3126,0,2.8793
17,1,19,19,3.0,1.2059,2.4349,3,1.4525,0,2.6694
17,1,20,20,3.0,0.39378,2.7421,2,3.0462,1,0.62484
17,1,21,21,3.0,0.4778,3.1921,2,2.0833,1,0.75148
17,1,22,22,3.0,0.90853,2.8512,3,1.7016,1,1.4667
17,1,23,23,3.0,0.84336,3.2654,3,2.5898,1,1.9573
17,1,24,24,3.0,0.6085,4.1397,2,1.7654,0,1.4135
17,1,25,25,3.0,0.57376,2.2892,2,1.7191,0,1.6435
17,1,26,26,3.0,0.59821,3.5542,3,3.8394,0,2.3532
17,1,27,27,3.0,1.5314,2.9694,3,1.5394,1,0.83386
17,1,28,28,3.0,1.0842,2.4189,3,2.0909,0,2.1972
17,1,29,29,3.0,0.99207,3.2392,2,1.58,0,2.0043
17,1,30,30,3.0,0.47124,3.7993,2,2.0125,1,0.68954
17,1,31,31,3.0,0.54851,3.7678,3,1.6238,1,1.372
17,1,32,32,3.0,0.62166,3.0984,3,1.8516,0,1.9043
17,1,33,33,3.0,0.6582,2.2896,2,2.8336,1,1.2924
17,1,34,34,3.0,0.50642,2.4007,3,3.2773,1,1.7968
17,1,35,35,3.0,0.50196,3.1213,3,2.2532,0,1.7541
17,1,36,36,3.0,0.30946,3.2417,2,2.3457,0,2.0011
17,1,37,37,3.0,0.46882,3.2721,3,2.4415,1,2.5593
17,1,38,38,3.0,0.26603,3.1446,3,2.0853,0,2.0041
17,1,39,39,3.0,0.7007,3.2329,3,1.8857,1,2.2291
17,1,40,40,3.0,1.0903,3.7124,1,3.3472,0,3.0376
17,1,41,41,3.0,1.6558,3.7217,2,1.8772,0,4.9382
17,1,42,42,3.0,0.51788,3.7335,2,1.3005,0,5.7424
17,1,43,43,3.0,0.90149,2.7941,3,4.3986,1,1.2227
17,1,44,44,3.0,0.66788,2.5194,3,1.5904,0,1.6985
17,1,45,45,3.0,0.58392,3.1187,3,1.6263,0,1.3752
17,1,46,46,3.0,0.53176,3.7681,2,1.5109,0,1.9633
17,1,47,47,3.0,0.32093,2.6233,3,4.2449,0,1.3946
17,1,48,48,3.0,0.82542,3.1144,2,3.2759,0,3.4962
17,1,49,49,3.0,0.71291,3.7683,2,2.7361,0,1.4284
17,1,50,50,3.0,0.68082,3.0202,3,1.8403,1,1.5218
17,1,51,51,3.0,0.76173,2.6798,3,1.6762,1,1.4878
17,1,52,52,3.0,0.51889,4.5094,3,1.105,1,1.2338
17,1,53,53,3.0,0.80129,3.132,2,3.576,1,1.3582
17,1,54,54,3.0,0.47046,4.199,2,6.099,0,1.8557
17,1,55,55,3.0,0.34926,3.5938,1,1.7583,0,2.3235
17,1,56,56,3.0,0.47737,3.1183,3,1.876,1,1.562
17,1,57,57,3.0,1.6555,2.3718,3,4.8183,0,2.775
17,1,58,58,3.0,0.56895,3.1329,3,6.9362,1,1.1828
17,1,59,59,3.0,0.39212,3.3039,2,1.9519,1,0.84284
17,1,60,60,3.0,0.4463,3.0329,3,1.961,0,1.901
18,1,1,1,3.0,1.057,2.5872,3,2.3289,0,3.4004
18,1,2,2,3.0,0.87171,2.4985,3,1.4992,0,2.0027
18,1,3,3,3.0,0.58731,2.8979,3,3.1013,0,2.1549
18,1,4,4,3.0,0.51659,2.3951,2,1.4377,1,2.5335
18,1,5,5,3.0,0.56149,2.3055,3,1.4067,0,1.7486
18,1,6,6,3.0,0.48693,2.2724,2,1.8082,0,1.9098
18,1,7,7,3.0,0.45964,2.4666,3,2.1376,1,1.807
18,1,8,8,3.0,2.5564,3.5071,2,1.605,1,1.2954
18,1,9,9,3.0,1.1534,2.1458,3,1.3645,0,1.3267
18,1,10,10,3.0,0.61349,2.9578,1,1.9945,1,2.4887
18,1,11,11,3.0,0.43274,2.6565,3,1.5199,0,1.6311
18,1,12,12,3.0,0.8427,2.5527,2,1.9034,1,1.2434
18,1,13,13,3.0,0.75629,2.5744,3,1.4087,1,2.3635
18,1,14,14,3.0,0.76129,2.942,3,1.4834,0,2.8286
18,1,15,15,3.0,0.78548,1.9955,3,1.451,0,2.306
18,1,16,16,3.0,0.6834,1.9435,2,2.163,0,1.2509
18,1,17,17,3.0,0.93606,2.6955,3,1.6259,1,3.3995
18,1,18,18,3.0,0.44046,2.2017,2,2.0917,0,1.0976
18,1,19,19,3.0,1.2574,2.4985,2,2.0369,1,1.1691
18,1,20,20,3.0,0.73375,3.1442,3,1.3352,1,0.95578
18,1,21,21,3.0,0.70448,2.5979,3,1.551,1,0.99411
18,1,22,22,3.0,0.38315,3.0825,2,1.5644,1,2.1513
18,1,23,23,3.0,0.72325,2.9004,3,1.7384,1,1.045
18,1,24,24,3.0,0.56311,3.2323,2,2.0388,1,1.6573
18,1,25,25,3.0,0.69566,2.3556,2,1.9569,0,0.8967
18,1,26,26,3.0,0.7113,2.5168,3,1.3016,0,1.2304
18,1,27,27,3.0,0.41617,3.1943,2,1.7724,1,0.78295
18,1,28,28,3.0,3.37,3.1933,3,1.271,1,1.6097
18,1,29,29,3.0,0.59556,2.6065,2,1.7078,1,1.0605
18,1,30,30,3.0,1.7211,3.2569,3,1.3807,0,1.476
18,1,31,31,3.0,3.4139,2.6249,1,2.9839,0,1.8785
18,1,32,32,3.0,0.87231,2.4231,2,1.4208,0,1.1076
18,1,33,33,3.0,0.66003,2.9528,2,1.5152,1,1.5393
18,1,34,34,3.0,0.3246,2.8031,3,1.6399,0,1.6599
18,1,35,35,3.0,0.82059,2.2965,3,1.2638,0,1.1905
18,1,36,36,3.0,0.6646,2.3661,3,1.1877,1,1.1228
18,1,37,37,3.0,0.57527,2.0406,3,1.5089,1,1.0385
18,1,38,38,3.0,0.68092,2.9707,2,1.4165,0,2.4287
18,1,39,39,3.0,0.43954,2.6002,2,2.1134,1,0.91429
18,1,40,40,3.0,0.6107,2.5801,1,1.7006,1,0.81649
18,1,41,41,3.0,0.63984,2.1762,2,1.4232,0,1.2483
18,1,42,42,3.0,0.37546,2.8152,3,1.3783,0,6.666
18,1,43,43,3.0,0.68557,2.3699,3,1.8805,1,1.1157
18,1,44,44,3.0,0.57694,1.6792,3,1.712,0,1.3398
18,1,45,45,3.0,0.63233,1.9807,2,1.3002,1,2.7678
18,1,46,46,3.0,1.295,2.3774,3,1.9625,1,1.3531
18,1,47,47,3.0,0.50819,2.1912,3,1.2719,0,1.2221
18,1,48,48,3.0,0.6076,2.3512,1,1.3905,0,2.6989
18,1,49,49,3.0,0.559,2.5527,2,1.4288,1,0.87897
18,1,50,50,3.0,0.70033,2.9821,2,1.3984,0,0.91494
18,1,51,51,3.0,0.56804,3.3083,3,1.4821,1,1.3152
18,1,52,52,3.0,0.69237,2.3522,2,1.2796,0,0.70028
18,1,53,53,3.0,0.6552,2.4364,3,1.5792,0,1.1033
18,1,54,54,3.0,0.46105,3.206,3,1.1797,1,0.67524
18,1,55,55,3.0,0.46786,2.7333,1,1.2874,1,0.9842
18,1,56,56,3.0,0.37382,1.9648,2,1.1622,0,0.69309
18,1,57,57,3.0,0.56463,3.0418,2,1.2584,1,0.75048
18,1,58,58,3.0,0.44213,2.4395,2,1.133,1,0.81629
18,1,59,59,3.0,0.58792,3.049,3,1.3113,1,0.7026
18,1,60,60,3.0,0.67918,2.5056,2,1.3938,0,0.70181
19,1,1,1,3.0,0.92032,3.5846,3,1.1233,1,0.86221
19,1,2,2,3.0,2.4851,2.6581,3,1.5321,0,1.7786
19,1,3,3,3.0,0.9919,3.8004,1,1.852,1,0.90469
19,1,4,4,3.0,1.3394,3.0856,3,1.7137,1,1.3425
19,1,5,5,3.0,1.7982,2.9555,2,1.3427,1,0.68821
19,1,6,6,3.0,1.084,2.1816,2,1.4997,0,1.2151
19,1,7,7,3.0,3.4029,3.1675,2,1.2376,0,1.0585
19,1,8,8,3.0,0.86823,2.8085,3,1.6329,1,1.2023
19,1,9,9,3.0,1.0585,2.8889,3,1.5798,1,1.2177
19,1,10,10,3.0,0.94435,3.0287,3,1.2995,1,0.67918
19,1,11,11,3.0,0.8959,3.7799,2,2.2856,1,0.62914
19,1,12,12,3.0,0.93139,2.0828,2,2.0386,0,0.83262
19,1,13,13,3.0,1.3357,3.3951,2,1.4717,1,0.79659
19,1,14,14,3.0,2.3829,2.2306,3,3.5487,1,0.97564
19,1,15,15,3.0,0.91752,3.2937,3,1.2595,1,1.5137
19,1,16,16,3.0,0.8113,3.1912,3,11.483,1,0.76959
19,1,17,17,3.0,1.1649,1.8318,2,1.1889,0,0.57358
19,1,18,18,3.0,0.94469,3.5796,2,2.4105,0,1.2117
19,1,19,19,3.0,1.0433,2.7659,2,7.5999,1,0.25129
19,1,20,20,3.0,0.60831,3.2659,3,1.0639,1,1.5027
19,1,21,21,3.0,0.97937,3.1053,3,1.6296,0,1.0655
19,1,22,22,3.0,0.89571,3.2179,2,2.1128,1,0.65129
19,1,23,23,3.0,0.9798,2.0431,2,1.2253,1,0.40044
19,1,24,24,3.0,0.81517,3.3172,3,2.6356,1,0.76568
19,1,25,25,3.0,1.0723,2.6482,3,1.8537,0,0.65674
19,1,26,26,3.0,0.71736,3.2825,3,1.8885,1,0.59495
19,1,27,27,3.0,0.69539,2.3806,3,1.4867,0,0.61966
19,1,28,28,3.0,0.73135,3.2544,3,2.1532,0,1.004
19,1,29,29,3.0,0.74642,3.0057,3,1.3309,1,2.6761
19,1,30,30,3.0,0.65804,3.3267,2,1.4721,1,0.5458
19,1,31,31,3.0,0.74043,3.6258,2,1.4697,1,0.6185
19,1,32,32,3.0,3.0819,3.4404,2,1.8549,1,0.28214
19,1,33,33,3.0,0.89075,3.9498,2,5.9891,1,0.5993
19,1,34,34,3.0,1.1299,2.7932,3,2.1353,0,0.19144
19,1,35,35,3.0,0.65846,2.0283,2,1.1631,0,0.17702
19,1,36,36,3.0,0.73013,3.1704,2,1.2396,1,0.28596
19,1,37,37,3.0,0.62881,3.1818,3,2.0635,0,0.67827
19,1,38,38,3.0,0.51562,3.3437,2,1.5712,1,0.20814
19,1,39,39,3.0,0.58459,3.3704,2,1.339,1,0.12247
19,1,40,40,3.0,0.61997,3.1846,3,2.4638,0,0.75103
19,1,41,41,3.0,1.0814,2.3066,2,2.3469,1,0.16364
19,1,42,42,3.0,0.44107,3.2774,3,1.571,0,0.13349
19,1,43,43,3.0,0.51938,2.284,2,1.7146,0,0.18917
19,1,44,44,3.0,0.69584,3.4936,2,2.296,1,0.20152
19,1,45,45,3.0,0.61028,3.455,3,1.4897,0,0.13663
19,1,46,46,3.0,0.77491,3.2763,2,2.0585,0,0.14731
19,1,47,47,3.0,0.99554,3.0416,3,1.8455,0,0.16461
19,1,48,48,3.0,1.0096,2.7271,3,0.99794,0,0.90311
19,1,49,49,3.0,0.84436,2.4423,3,1.1346,1,0.10667
19,1,50,50,3.0,0.57557,3.2768,2,1.0966,1,0.10131
19,1,51,51,3.0,0.72318,3.3498,3,2.0021,1,0.080616
19,1,52,52,3.0,0.79027,3.0497,3,1.2661,0,0.12893
19,1,53,53,3.0,0.554,2.511,3,1.0494,0,0.11724
19,1,54,54,3.0,1.1073,3.2367,2,2.4147,0,0.14052
19,1,55,55,3.0,1.5252,3.1876,2,1.5654,1,0.090356
19,1,56,56,3.0,0.92014,3.4472,2,1.3244,1,0.17361
19,1,57,57,3.0,0.67245,3.6999,3,0.96293,0,2.0645
19,1,58,58,3.0,0.92766,2.8791,2,1.3001,1,0.11686
19,1,59,59,3.0,0.79716,3.7329,3,2.0008,0,1.3399
19,1,60,60,3.0,0.82548,3.5517,2,2.3882,0,0.11813
20,1,1,1,3.0,0.30957,2.1289,2,3.7104,0,3.0443
20,1,2,2,3.0,0.4403,1.8269,3,1.2002,0,2.8187
20,1,3,3,3.0,0.40205,2.0717,3,1.1945,0,2.2291
20,1,4,4,3.0,1.3678,2.8189,3,1.6144,1,3.5636
20,1,5,5,3.0,0.80446,2.898,3,0.98966,1,2.4115
20,1,6,6,3.0,1.1594,2.7886,3,1.6688,0,2.5052
20,1,7,7,3.0,2.0456,3.7894,2,2.0399,1,1.4215
20,1,8,8,3.0,0.73327,2.4932,3,0.92242,0,1.2122
20,1,9,9,3.0,0.41057,4.5553,1,1.2633,1,1.8631
20,1,10,10,3.0,0.63877,2.411,3,1.1627,0,1.9761
20,1,11,11,3.0,0.44735,1.8038,2,1.0319,0,1.029
20,1,12,12,3.0,0.3478,2.1807,2,1.2233,1,1.8999
20,1,13,13,3.0,0.5364,2.8597,3,1.7729,1,2.9083
20,1,14,14,3.0,0.40367,2.898,2,1.7894,1,1.2341
20,1,15,15,3.0,0.34322,2.6036,3,0.9917,0,2.3641
20,1,16,16,3.0,0.32125,2.6631,3,1.1127,0,1.2383
20,1,17,17,3.0,0.44862,2.8682,2,1.0641,1,1.3524
20,1,18,18,3.0,0.37257,2.8876,2,0.69108,1,0.72732
20,1,19,19,3.0,0.31018,2.7176,2,0.97678,0,1.9149
20,1,20,20,3.0,0.29193,2.9893,2,1.3438,1,0.90181
20,1,21,21,3.0,0.31047,2.4806,2,1.1611,1,2.0652
20,1,22,22,3.0,0.33526,3.0089,3,1.4464,0,1.4923
20,1,23,23,3.0,0.4242,2.7019,1,1.7517,1,1.8675
20,1,24,24,3.0,0.39419,2.593,2,5.9978,0,4.8043
20,1,25,25,3.0,0.42169,1.2618,2,1.0376,0,1.0087
20,1,26,26,3.0,0.46539,2.3435,2,2.0364,0,1.0176
20,1,27,27,3.0,0.37846,2.8945,2,0.46074,1,0.72564
20,1,28,28,3.0,0.33075,2.8173,3,0.98758,1,2.3728
20,1,29,29,3.0,0.3123,2.6698,2,1.2413,0,0.77491
20,1,30,30,3.0,0.33342,3.42,3,1.364,1,1.1513
20,1,31,31,3.0,0.33454,3.3325,2,1.2393,0,1.6984
20,1,32,32,3.0,0.59116,3.2899,3,1.4046,1,1.6591
20,1,33,33,3.0,0.45657,2.0631,1,1.09,0,1.1741
20,1,34,34,3.0,0.35678,2.5641,3,1.3267,1,0.76387
20,1,35,35,3.0,0.29417,2.9061,3,0.66821,1,1.3453
20,1,36,36,3.0,0.29395,2.505,2,3.9439,1,3.2452
20,1,37,37,3.0,0.42461,2.8035,3,1.9784,1,5.8506
20,1,38,38,3.0,0.29084,2.8025,3,1.4152,1,1.7285
20,1,39,39,3.0,0.32541,2.5267,3,0.49926,0,0.83086
20,1,40,40,3.0,0.34873,2.7425,2,2.1101,0,0.96247
20,1,41,41,3.0,0.34918,2.693,3,1.4733,0,1.6106
20,1,42,42,3.0,0.34098,2.2144,2,1.0242,0,0.55164
20,1,43,43,3.0,0.42244,2.2746,3,1.048,1,1.2268
20,1,44,44,3.0,0.33509,2.7969,3,1.0,0,1.0817
20,1,45,45,3.0,0.3224,2.8258,2,1.1964,1,0.58773
20,1,46,46,3.0,0.32683,2.3552,2,1.4053,1,2.9356
20,1,47,47,3.0,0.27914,2.7452,2,0.94835,0,0.67938
20,1,48,48,3.0,0.58748,3.2241,2,1.9678,0,1.1799
20,1,49,49,3.0,0.29496,3.0069,2,1.0311,1,1.041
20,1,50,50,3.0,0.36896,3.5343,2,1.0783,1,0.80414
20,1,51,51,3.0,0.29538,3.0201,1,1.377,1,0.92732
20,1,52,52,3.0,0.30501,3.4127,2,0.89912,1,0.69188
20,1,53,53,3.0,0.46674,2.4946,2,0.60047,1,0.69335
20,1,54,54,3.0,0.30709,2.8022,2,0.901,1,0.59479
20,1,55,55,3.0,0.26501,2.9814,1,1.1498,1,0.68098
20,1,56,56,3.0,0.2438,2.2932,2,1.1483,1,0.42951
20,1,57,57,3.0,2.4882,2.7058,1,0.39395,0,0.36305
20,1,58,58,3.0,0.26074,2.3067,2,0.74523,0,0.55094
20,1,59,59,3.0,0.29745,2.9538,2,0.67864,1,0.62737
20,1,60,60,3.0,0.356,3.0136,3,0.7254,0,0.58932
21,1,1,1,3.0,1.719,3.2928,2,3.2082,0,4.3695
21,1,2,2,3.0,2.5926,2.7599,2,1.5727,1,0.79629
21,1,3,3,3.0,1.2927,3.977,2,1.8817,1,1.6132
21,1,4,4,3.0,2.1828,3.4435,2,4.3708,0,3.0905
21,1,5,5,3.0,1.3979,3.7439,2,1.9324,1,0.61426
21,1,6,6,3.0,1.7198,2.6561,3,7.4569,1,6.885
21,1,7,7,3.0,1.4968,3.5287,3,1.9973,1,2.0052
21,1,8,8,3.0,1.7923,2.7121,1,1.8375,0,1.8689
21,1,9,9,3.0,1.4836,3.0669,3,1.688,0,1.9322
21,1,10,10,3.0,1.4634,2.5289,3,1.5753,0,1.2621
21,1,11,11,3.0,0.98758,3.2845,3,2.0872,0,0.68102
21,1,12,12,3.0,0.68969,2.5127,3,1.6269,0,3.4255
21,1,13,13,3.0,1.8678,3.1079,3,1.6935,0,1.0016
21,1,14,14,3.0,1.4801,3.9426,2,1.4554,1,0.75962
21,1,15,15,3.0,1.5912,3.5734,3,6.1418,1,2.9162
21,1,16,16,3.0,0.96446,2.3576,3,1.3594,0,0.81393
21,1,17,17,3.0,1.1901,2.4375,3,1.0297,0,2.8894
21,1,18,18,3.0,1.0665,3.3057,2,1.4662,1,2.4904
21,1,19,19,3.0,1.6685,3.042,2,1.683,0,2.2156
21,1,20,20,3.0,1.5084,2.649,3,1.2243,1,0.91315
21,1,21,21,3.0,1.6554,4.0841,3,1.6883,0,1.5716
21,1,22,22,3.0,1.5816,4.5938,3,1.7046,1,4.0706
21,1,23,23,3.0,1.6255,2.962,3,2.2366,0,2.2421
21,1,24,24,3.0,1.3329,3.0699,3,1.9774,1,1.0509
21,1,25,25,3.0,1.3155,4.3945,2,1.6816,1,3.7269
21,1,26,26,3.0,2.0477,2.9036,2,1.6916,1,9.0491
21,1,27,27,3.0,1.9237,2.346,2,1.9402,0,1.7468
21,1,28,28,3.0,1.0726,2.3989,2,5.1747,1,3.4384
21,1,29,29,3.0,1.1929,2.9138,3,1.5129,1,1.7171
21,1,30,30,3.0,0.80984,3.2162,3,1.4481,1,3.2903
21,1,31,31,3.0,1.3158,3.1822,2,4.6775,0,5.1933
21,1,32,32,3.0,3.284,2.9767,3,2.0979,1,1.2672
21,1,33,33,3.0,1.6437,3.8504,2,1.6646,1,0.82658
21,1,34,34,3.0,0.84636,3.3938,2,1.571,1,0.58269
21,1,35,35,3.0,1.5897,3.2484,2,1.5502,1,0.75392
21,1,36,36,3.0,0.98266,3.2799,2,2.5999,0,4.5914
21,1,37,37,3.0,0.88449,2.4319,3,1.3114,0,1.2032
21,1,38,38,3.0,2.1181,2.6702,3,1.7291,0,1.1524
21,1,39,39,3.0,1.0188,2.8938,3,4.6987,1,0.79615
21,1,40,40,3.0,0.8502,3.181,2,3.2011,0,3.329
21,1,41,41,3.0,0.79251,3.3397,2,1.3179,1,1.455
21,1,42,42,3.0,0.91168,3.5421,3,1.9564,1,3.8963
21,1,43,43,3.0,2.0326,3.5063,2,1.8794,1,1.3024
21,1,44,44,3.0,1.5073,3.5365,2,1.9763,1,1.6999
21,1,45,45,3.0,1.3674,2.9797,3,1.3631,0,5.0424
21,1,46,46,3.0,1.8806,2.8649,3,1.9865,1,2.1692
21,1,47,47,3.0,1.6217,4.8465,1,3.4447,1,2.7217
21,1,48,48,3.0,0.84778,2.783,2,1.6239,0,1.0742
21,1,49,49,3.0,1.1447,2.9662,3,1.2276,1,3.3407
21,1,50,50,3.0,1.0207,2.8971,3,1.0504,1,1.2441
21,1,51,51,3.0,1.0708,2.9971,2,1.3872,0,1.1708
21,1,52,52,3.0,0.86076,2.6794,3,1.2622,1,2.2177
21,1,53,53,3.0,0.023593,3.6151,2,1.7754,1,2.9485
21,1,54,54,3.0,1.3173,3.23,2,1.4125,0,2.4535
21,1,55,55,3.0,0.69021,2.601,2,1.5759,0,3.3886
21,1,56,56,3.0,0.95059,3.8067,2,2.7916,1,5.5448
21,1,57,57,3.0,1.1664,3.2805,3,1.2115,1,1.5046
21,1,58,58,3.0,0.67241,2.7242,3,1.4574,1,1.2751
21,1,59,59,3.0,0.81496,3.8669,3,4.4386,1,2.4543
21,1,60,60,3.0,1.8495,3.669,2,1.3501,0,0.76701
22,1,1,1,3.0,2.3836,3.767,2,2.3852,0,0.91518
22,1,2,2,3.0,3.0792,2.5505,3,1.1383,0,1.4228
22,1,3,3,3.0,1.4723,1.2477,1,2.6273,0,0.94791
22,1,4,4,3.0,2.0289,1.7647,3,1.3631,0,0.85504
22,1,5,5,3.0,1.8427,2.4619,3,2.013,0,1.0139
22,1,6,6,3.0,3.3772,2.1975,3,1.6614,1,1.6397
22,1,7,7,3.0,2.6419,2.672,3,1.5563,0,0.72173
22,1,8,8,3.0,1.2726,1.8343,3,2.0422,0,0.61037
22,1,9,9,3.0,1.5522,2.8188,3,3.7768,0,0.69544
22,1,10,10,3.0,2.6016,2.6438,3,1.2484,0,0.77745
22,1,11,11,3.0,0.74265,1.6911,2,2.0362,0,0.88001
22,1,12,12,3.0,0.65594,2.5496,2,2.1383,1,1.0814
22,1,13,13,3.0,0.62441,2.2894,2,2.2072,0,1.2098
22,1,14,14,3.0,3.7233,1.8336,1,3.2285,1,3.0474
22,1,15,15,3.0,0.62124,2.3985,3,2.1868,0,0.36817
22,1,16,16,3.0,1.4686,2.3182,2,1.3037,0,0.44505
22,1,17,17,3.0,1.0842,2.2814,3,1.9369,0,0.80571
22,1,18,18,3.0,1.0086,2.3392,3,1.2323,0,0.90389
22,1,19,19,3.0,2.2053,2.5193,3,1.4655,0,0.92783
22,1,20,20,3.0,3.481,1.5878,3,2.1959,0,0.93927
22,1,21,21,3.0,0.93174,2.1959,3,1.6768,0,0.91394
22,1,22,22,3.0,0.8794,2.8935,3,1.047,0,1.2642
22,1,23,23,3.0,0.73366,3.1186,2,1.6767,1,2.2006
22,1,24,24,3.0,0.76144,2.3809,3,1.5982,0,1.4266
22,1,25,25,3.0,2.26,2.4116,3,1.4636,0,2.3914
22,1,26,26,3.0,1.9953,1.5768,2,1.6258,0,0.88767
22,1,27,27,3.0,1.0793,2.3312,2,2.2493,1,1.7798
22,1,28,28,3.0,0.84742,2.8198,3,1.2155,0,1.4542
22,1,29,29,3.0,2.3844,1.5941,2,2.1381,1,2.8448
22,1,30,30,3.0,2.9336,1.3792,2,2.3629,0,0.87661
22,1,31,31,3.0,1.897,3.1034,2,1.5664,1,1.2897
22,1,32,32,3.0,4.0001,2.3011,2,1.1774,0,1.2777
22,1,33,33,3.0,0.813,2.3699,1,3.7167,0,0.95144
22,1,34,34,3.0,0.64475,2.8046,2,2.6427,0,0.90923
22,1,35,35,3.0,0.85358,2.347,3,1.2027,0,1.2694
22,1,36,36,3.0,0.65887,2.8642,2,5.2397,0,0.81639
22,1,37,37,3.0,0.80065,3.2819,2,3.0885,1,0.57966
22,1,38,38,3.0,0.62745,2.7916,3,0.80857,0,0.68887
22,1,39,39,3.0,0.8797,2.9317,3,2.7856,0,0.46405
22,1,40,40,3.0,1.9231,1.6964,3,1.9002,0,0.4027
22,1,41,41,3.0,0.82711,2.7159,3,2.0506,1,1.3772
22,1,42,42,3.0,1.6471,2.8294,2,10.051,0,1.0744
22,1,43,43,3.0,0.59677,2.3961,3,0.83872,0,0.41022
22,1,44,44,3.0,1.5026,2.1932,3,0.99969,0,0.50461
22,1,45,45,3.0,0.68176,2.7669,3,1.2869,1,0.62127
22,1,46,46,3.0,0.99568,2.8177,2,1.9889,0,1.2819
22,1,47,47,3.0,0.78581,2.6212,1,1.7177,1,0.31662
22,1,48,48,3.0,0.68374,2.6192,3,0.92803,0,1.0053
22,1,49,49,3.0,0.66271,2.6945,2,2.6115,0,0.94952
22,1,50,50,3.0,0.6084,2.8524,3,1.8527,0,2.1183
22,1,51,51,3.0,6.2582,3.8638,1,1.573,1,1.4482
22,1,52,52,3.0,0.63149,2.692,3,1.0714,0,0.52324
22,1,53,53,3.0,0.64563,2.5693,2,5.6154,0,1.0193
22,1,54,54,3.0,0.69711,1.745,3,0.78641,1,0.90904
22,1,55,55,3.0,0.51534,2.2434,2,3.5867,0,0.73771
22,1,56,56,3.0,0.57218,2.5499,3,1.9257,0,0.97417
22,1,57,57,3.0,0.72114,2.8737,3,1.0184,0,0.65728
22,1,58,58,3.0,0.81111,2.7175,3,1.6388,0,0.63331
22,1,59,59,3.0,0.71539,2.9308,3,2.2631,0,2.8895
22,1,60,60,3.0,0.25991,2.6548,1,1.2304,1,0.56423
23,1,1,1,3.0,1.8028,2.9312,3,2.647,0,0.75046
23,1,2,2,3.0,1.163,3.205,2,1.9421,1,2.2487
23,1,3,3,3.0,1.2641,2.6057,3,2.0195,1,3.4802
23,1,4,4,3.0,1.014,3.1198,3,1.9889,0,1.0957
23,1,5,5,3.0,1.0071,2.7742,2,1.3336,1,0.91637
23,1,6,6,3.0,0.68193,3.33,3,1.5112,1,0.50263
23,1,7,7,3.0,0.92473,2.7881,3,1.1925,1,0.6393
23,1,8,8,3.0,0.70949,2.5539,2,1.23,0,0.58847
23,1,9,9,3.0,0.49074,2.3268,2,1.124,0,0.68636
23,1,10,10,3.0,0.78824,2.7486,3,2.3406,1,0.84585
23,1,11,11,3.0,0.61533,3.0682,2,2.0121,0,0.80286
23,1,12,12,3.0,0.86956,3.0962,3,0.81162,1,0.70476
23,1,13,13,3.0,1.0177,3.5562,3,0.91703,1,0.63037
23,1,14,14,3.0,0.79788,2.6582,3,1.0704,0,0.54715
23,1,15,15,3.0,0.67594,2.6407,3,0.96978,0,0.50929
23,1,16,16,3.0,0.60117,3.0835,3,0.81039,1,0.7162
23,1,17,17,3.0,0.53452,3.2457,2,1.6858,1,0.70592
23,1,18,18,3.0,0.48032,3.0949,3,1.1357,1,0.53331
23,1,19,19,3.0,0.443,3.9033,3,1.4002,1,0.71718
23,1,20,20,3.0,0.59285,2.7764,3,0.99836,0,0.5416
23,1,21,21,3.0,0.55608,3.3991,2,1.4139,1,0.76437
23,1,22,22,3.0,0.74412,3.1292,3,1.012,1,0.61699
23,1,23,23,3.0,0.47098,3.249,3,2.2387,0,0.87049
23,1,24,24,3.0,0.68202,2.9436,2,1.2715,1,0.53488
23,1,25,25,3.0,0.52801,3.3431,3,1.1086,0,0.78823
23,1,26,26,3.0,0.53283,2.582,3,0.99931,0,0.81675
23,1,27,27,3.0,0.82817,2.8548,3,1.0803,1,0.66457
23,1,28,28,3.0,0.54035,3.1637,2,1.5505,1,0.67879
23,1,29,29,3.0,0.64545,2.6058,3,1.207,1,0.53689
23,1,30,30,3.0,0.57905,3.0439,2,0.87271,1,0.5373
23,1,31,31,3.0,0.61129,2.7298,3,0.82556,0,0.7019
23,1,32,32,3.0,0.65281,2.996,3,0.8869,1,0.82232
23,1,33,33,3.0,0.60374,3.1597,1,2.1217,0,1.5562
23,1,34,34,3.0,0.59624,3.4446,3,0.9476,1,0.5154
23,1,35,35,3.0,0.4288,3.1948,3,0.81021,0,0.54087
23,1,36,36,3.0,0.59195,3.1163,3,1.0143,0,0.51629
23,1,37,37,3.0,1.1557,2.1847,3,0.59078,1,0.73919
23,1,38,38,3.0,0.54022,2.7004,3,0.8879,0,0.4352
23,1,39,39,3.0,0.47389,2.8392,3,1.1426,0,0.55083
23,1,40,40,3.0,0.51422,3.1296,3,0.93776,1,0.5714
23,1,41,41,3.0,0.44767,3.48,2,0.8242,1,0.82546
23,1,42,42,3.0,0.64501,3.4437,1,1.0343,1,0.61812
23,1,43,43,3.0,0.66875,3.0708,3,1.3538,0,0.5459
23,1,44,44,3.0,0.4545,3.0358,3,1.1023,1,0.49383
23,1,45,45,3.0,0.59943,2.6047,3,0.88019,1,0.65257
23,1,46,46,3.0,0.53307,2.8563,3,0.96807,0,0.53262
23,1,47,47,3.0,0.4831,3.0315,3,0.67564,1,0.67865
23,1,48,48,3.0,0.91228,2.2565,2,1.3324,0,0.56645
23,1,49,49,3.0,0.55404,3.4234,3,1.006,1,0.76136
23,1,50,50,3.0,0.77655,3.2166,2,1.073,1,0.62395
23,1,51,51,3.0,0.62519,2.8647,3,1.1268,0,0.92895
23,1,52,52,3.0,0.54417,2.6683,3,1.0264,0,0.56408
23,1,53,53,3.0,0.62673,2.8416,3,0.90797,1,0.73844
23,1,54,54,3.0,0.56904,3.3211,3,1.0024,1,0.67049
23,1,55,55,3.0,0.74624,3.3439,3,1.0344,1,0.53076
23,1,56,56,3.0,0.70381,3.1485,2,1.1132,0,0.5648
23,1,57,57,3.0,0.79836,2.6917,3,0.94693,1,0.62704
23,1,58,58,3.0,0.6246,2.8771,3,1.0225,1,1.2735
23,1,59,59,3.0,0.55088,3.1072,3,0.94377,0,1.1291
23,1,60,60,3.0,0.87006,2.3966,3,1.0511,0,0.58161
24,1,1,1,3.0,1.1747,2.4011,3,3.4022,0,2.4131
24,1,2,2,3.0,1.0857,2.2588,2,1.5222,1,0.87198
24,1,3,3,3.0,0.78957,2.1492,2,1.4891,0,1.3595
24,1,4,4,3.0,1.0767,2.814,2,1.7138,1,2.4016
24,1,5,5,3.0,0.6491,2.5068,2,1.2068,0,1.1362
24,1,6,6,3.0,0.76175,2.7556,1,1.63,1,1.8423
24,1,7,7,3.0,0.74409,2.3044,2,2.2431,0,0.56154
24,1,8,8,3.0,0.54542,2.7936,2,0.86024,0,0.95247
24,1,9,9,3.0,0.59496,3.2308,1,2.5258,1,0.54692
24,1,10,10,3.0,0.65968,2.7662,3,1.7615,0,2.053
24,1,11,11,3.0,0.54274,2.5271,2,1.1628,1,1.2137
24,1,12,12,3.0,0.6457,2.5553,2,2.6064,1,1.0447
24,1,13,13,3.0,0.66774,2.9448,2,3.3736,1,1.4047
24,1,14,14,3.0,0.32002,2.2853,2,1.278,0,0.52825
24,1,15,15,3.0,1.002,3.0691,2,1.6764,1,0.72623
24,1,16,16,3.0,1.1694,2.57,2,1.3666,1,0.45475
24,1,17,17,3.0,0.97376,3.1378,2,1.1404,1,0.69946
24,1,18,18,3.0,0.94148,3.3514,2,1.7872,0,1.795
24,1,19,19,3.0,0.63294,3.0303,2,2.9259,0,1.2713
24,1,20,20,3.0,0.99924,2.1797,2,1.0019,0,0.58266
24,1,21,21,3.0,0.63297,2.6311,2,1.248,0,2.0148
24,1,22,22,3.0,0.73177,3.5178,1,1.6654,1,0.53899
24,1,23,23,3.0,0.49313,2.5794,2,1.1018,0,0.51828
24,1,24,24,3.0,0.85897,3.4149,2,1.2126,1,0.67932
24,1,25,25,3.0,0.80247,2.5093,2,0.99783,0,1.54
24,1,26,26,3.0,0.68046,2.8324,2,1.8408,1,0.54682
24,1,27,27,3.0,0.53191,2.7681,2,2.3892,1,1.1572
24,1,28,28,3.0,0.75204,2.9328,2,1.287,1,0.57102
24,1,29,29,3.0,0.52241,3.088,2,1.7411,0,2.561
24,1,30,30,3.0,0.99579,3.0436,2,1.3588,0,1.639
24,1,31,31,3.0,0.63162,3.6175,2,0.91048,1,0.62899
24,1,32,32,3.0,0.48953,3.0136,2,1.2248,1,0.62562
24,1,33,33,3.0,0.54162,2.7405,2,1.1952,1,0.80358
24,1,34,34,3.0,0.34174,2.6399,2,1.2585,0,0.66349
24,1,35,35,3.0,0.84984,2.7304,2,1.3883,1,0.59679
24,1,36,36,3.0,1.9498,2.507,2,1.2579,0,0.57478
24,1,37,37,3.0,0.86246,2.5801,2,1.3139,0,0.48904
24,1,38,38,3.0,0.88124,3.1321,2,1.1768,1,0.82771
24,1,39,39,3.0,1.5915,3.0,2,2.3866,0,0.90524
24,1,40,40,3.0,0.89471,2.9552,3,2.6784,0,1.1746
24,1,41,41,3.0,0.99529,3.1181,2,1.3753,0,0.79945
24,1,42,42,3.0,1.0927,2.6526,2,1.5521,0,1.1943
24,1,43,43,3.0,0.9844,3.0309,2,2.0263,1,0.91132
24,1,44,44,3.0,0.61957,2.7716,2,1.8307,0,0.49119
24,1,45,45,3.0,0.93323,2.5678,2,1.1644,1,0.64043
24,1,46,46,3.0,0.18103,2.6811,1,1.0516,0,0.65732
24,1,47,47,3.0,1.0567,2.6861,2,1.4166,0,3.1043
24,1,48,48,3.0,0.55469,3.0987,2,0.90043,0,0.66981
24,1,49,49,3.0,0.97582,2.8263,2,2.1854,0,0.45276
24,1,50,50,3.0,0.93121,2.1825,2,1.0008,0,3.1815
24,1,51,51,3.0,0.79038,3.7006,2,0.92553,0,1.8039
24,1,52,52,3.0,0.66281,2.7699,2,1.7278,0,0.46346
24,1,53,53,3.0,0.86076,3.3293,2,1.3604,1,0.68946
24,1,54,54,3.0,0.76386,3.2573,1,1.4934,0,1.0508
24,1,55,55,3.0,0.73107,2.6957,2,1.326,0,0.51353
24,1,56,56,3.0,1.084,2.8174,2,2.0632,0,2.1273
24,1,57,57,3.0,1.1452,3.1293,2,2.0747,0,1.447
24,1,58,58,3.0,2.1486,2.6173,2,1.5008,0,1.68
24,1,59,59,3.0,3.569,2.5678,1,5.026,0,11.991
24,1,60,60,3.0,0.52975,2.7454,2,0.86213,0,0.43794
