Subj_idx,Block,Trial,Stimulus,Response,RT_dec,Confidence,RT_conf,ErrorDirectionJudgment,RT_directionJudgment
1,1,1,7,7,4.40390610300528,1,1.56704405399796,-1,4.74790400899656
1,1,2,5,6,2.95359509499394,3,1.20188236299146,-1,2.9803870649921
1,1,3,27,18,5.44084643099632,1,1.57354796100117,-1,1.97837590900599
1,1,4,14,11,5.12258730200119,1,0.520813412003918,-1,2.23105531898909
1,1,5,11,12,5.65629194700159,2,0.599301484005991,1,0.681299438001588
1,1,6,22,16,4.42174130800413,2,0.449200044997269,1,0.577909190003993
1,1,7,28,11,3.7376096299995,1,1.32203416900302,1,0.54327973400359
1,1,8,9,8,2.48642008200113,3,1.00674909500231,1,1.22477043200342
1,1,9,26,20,4.55516629898921,2,0.887593472012668,1,1.22060559201054
1,1,10,24,21,4.98889335700369,1,0.716875957004959,1,0.555089777000831
1,1,11,29,18,7.32478111900855,2,1.63303050700051,-1,0.882534392003436
1,1,12,15,14,3.23703735000163,2,0.592320351002854,1,0.331449943987536
1,1,13,6,6,2.43612412500079,3,0.802825808001217,-1,1.17293095801142
1,1,14,7,7,1.93563245800033,3,1.08615241700318,1,0.461294213004294
1,1,15,22,16,5.20582275200286,2,0.358371937007178,1,0.53142286799266
1,1,16,11,9,4.20464021299267,3,1.22395092000079,-1,2.15266297200287
1,1,17,8,7,2.08576711699425,3,0.792534808002529,-1,0.482913337007631
1,1,18,29,18,5.75637285599078,1,0.451351965995855,-1,0.419581170004676
1,1,19,16,16,5.77310974399734,1,1.38835190699319,-1,0.565843802003656
1,1,20,11,10,4.37160137300089,2,1.19893376999244,1,1.13743845999124
1,1,21,29,19,5.18924785499985,2,0.972391199000413,1,1.07207001101051
1,1,22,7,9,3.8542765010061,3,0.799256347003393,1,0.554079131994513
1,1,23,8,7,2.73643575199821,3,0.802754806994926,-1,1.04558798999642
1,1,24,11,11,3.07006876201194,2,1.83535913399828,1,1.5953064320056
1,1,25,26,20,2.60301119800715,1,1.96135941999091,1,0.995061524008634
1,1,26,9,12,5.60629680499551,3,1.17731729199295,1,0.364513970998814
1,1,27,22,18,6.90756924499874,2,1.62250362799386,-1,2.23003393900581
1,1,28,17,16,4.55501362899668,1,0.846291699999711,-1,0.0316806629998609
1,1,29,7,7,2.1357260740042,2,11.8722066300106,-1,6.65912934399967
1,1,30,20,15,3.83754534499894,2,0.924832008997328,-1,1.61850299200159
1,1,31,25,21,2.80323628699989,1,3.75808847500593,1,0.542865769995842
1,1,32,5,5,3.02010496500588,3,0.525897984000039,1,0.34701350099931
1,1,33,26,18,3.28705524699762,2,1.96541914400586,1,0.512054731007083
1,1,34,7,7,2.35258359400905,3,1.58379786700243,-1,1.74663526000222
1,1,35,29,16,2.18575905999751,2,1.29997552999703,1,0.961707969996496
1,1,36,4,4,1.55190164700616,3,0.68709699100873,-1,1.22209944699716
1,1,37,22,14,6.04009682001197,2,3.44366471799731,-1,2.45792755299772
1,1,38,12,12,3.60402148599678,2,0.850129318991094,-1,0.282607171990094
1,1,39,9,9,2.50279999199847,3,1.18776443699608,-1,0.358686302002752
1,1,40,8,9,4.58861124800751,3,1.65643293500762,1,2.50378246798937
1,1,41,10,10,3.17017698899144,2,0.886646377010038,-1,1.43006456000148
1,1,42,7,6,1.86878667300334,3,0.373540768996463,-1,0.648460230004275
1,1,43,27,15,2.05226614700223,2,0.776370195002528,-1,0.916952617990319
1,1,44,11,8,2.76977032200375,2,1.47582837600203,-1,0.905663322002511
1,1,45,24,15,2.95336175500415,2,1.96666427000309,-1,0.929104384995298
1,1,46,11,8,4.00448623200646,3,0.713744729000609,-1,0.465019769995706
1,1,47,11,10,3.75416982399474,3,0.685328476989525,-1,0.373111922002863
1,1,48,4,4,0.984628926991718,3,1.3289607649931,-1,0.390346995001892
1,1,49,22,12,6.15686440400896,2,2.54806492499483,-1,2.9358970149915
1,1,50,16,17,5.73986129999685,2,0.738591811998049,-1,1.63874927100551
1,1,51,22,19,19.9553531119891,1,0.661007593997056,-1,0.412384803988971
1,1,52,23,16,5.47270345799916,1,0.851096174999839,-1,0.378369967002072
1,1,53,7,5,1.56855282699689,3,0.95180086500477,-1,0.268405069000437
1,1,54,17,15,3.83758334199956,3,1.24454299399804,-1,0.0596750050026458
1,1,55,7,7,1.53506622799614,3,0.629437451992999,-1,0.374178095007665
1,1,56,11,11,4.70529235499271,3,0.982828348001931,1,0.193463311996311
1,1,57,7,7,1.55182298699219,3,0.581412061001174,1,1.12844799400773
1,1,58,12,9,9.92768070999591,3,0.74116165599844,1,0.71489974000724
1,1,59,9,8,2.61962445799145,3,0.904631085009896,-1,0.303214806001051
1,1,60,14,11,8.30920086799597,1,0.613340844996856,1,1.33602177600551
1,1,61,4,4,4.47183306000079,3,1.11377122100384,1,2.28070612499141
1,1,62,17,14,4.95568325700879,2,0.837506077994476,-1,0.525681921004434
1,1,63,4,4,1.00124239199795,3,0.6264855240006,-1,0.25866620700981
1,1,64,7,7,1.78530090999266,3,0.290161513999919,1,0.82532368900138
1,1,65,29,25,1.88554399200075,2,1.43470026999421,1,0.874568083003396
1,1,66,7,8,2.41936316200008,3,0.811983455001609,1,0.244660511991242
1,1,67,16,15,5.97326362799504,2,0.8903156209999,1,0.441279268008657
1,1,68,21,16,31.1344254169962,1,0.581607979009277,1,0.296892226004275
1,1,69,6,5,0.917753244997584,3,0.341683420992922,1,0.291635039990069
1,1,70,11,9,5.22347015299601,3,1.92155340898898,-1,0.918323094010702
1,1,71,28,22,3.30385622500035,2,0.821388055002899,-1,1.24693470200873
1,1,72,18,16,3.78759068000363,2,0.613440262997756,1,0.264489640001557
1,1,73,7,7,1.53500359700411,3,0.292627934002667,1,1.02841862899368
1,1,74,10,11,4.77186719499878,3,1.1882699370035,1,0.263113442008034
1,1,75,24,18,1.63522191499942,2,0.771739116986282,-1,0.352194530001725
1,1,76,7,6,2.8365890210116,3,0.706332005996956,-1,0.111979876004625
1,1,77,10,10,6.37379470799351,3,0.745682501990814,1,0.654680187988561
1,1,78,14,14,5.80641624701093,2,2.24513606399705,-1,0.403462197005865
1,1,79,29,22,1.58513721800409,3,3.32781569199869,-1,2.56878407699696
1,1,80,4,4,0.83426886399684,3,0.331964333992801,-1,0.448328651997144
1,1,81,7,7,7.94217701499292,3,0.39689957399969,-1,0.192546118996688
1,1,82,4,4,0.80092563299695,3,0.753426595998462,-1,0.268026906996965
1,1,83,22,19,1.70197852300771,2,0.984480971994344,-1,0.979540686996188
1,1,84,28,18,2.15243977500359,2,1.04851608199533,-1,1.03886546001013
1,1,85,29,21,2.18580851299339,2,2.03722058099811,-1,2.22056693999912
1,1,86,4,4,0.967753308010288,3,0.744075134003651,-1,0.203923812994617
1,1,87,16,12,3.73748646999593,2,1.5437449059973,-1,0.842396362000727
1,1,88,29,23,4.00450621699565,1,1.03275137500896,-1,0.449438983996515
1,1,89,11,13,1.75196618100745,2,0.616549694997957,1,1.04222220899828
1,1,90,4,5,1.2847819840099,3,0.718429095009924,1,0.636972555003013
1,1,91,4,4,0.750860824002302,3,1.50138986000093,-1,0.36902097199345
1,1,92,29,16,2.30263418800314,2,12.2583636740019,1,3.92720456299139
1,1,93,19,16,4.53842122899368,2,4.20907594599703,1,2.79212707800616
1,1,94,16,14,2.86989367200295,2,0.819988168004784,-1,1.65332099499938
1,1,95,13,11,1.56851451499097,2,0.400204958001268,-1,4.20948228999623
1,1,96,4,4,1.05118202000449,3,0.693650186993182,-1,0.116621969995322
1,1,97,15,12,2.71976791699126,2,0.469565674997284,1,0.629945310007315
1,1,98,6,6,1.36820030098897,3,0.692099810010404,-1,0.305733422006597
1,1,99,7,6,2.10233217698988,3,0.834301583992783,-1,0.4756348469964
1,1,100,5,5,1.01778052600275,3,0.931908768005087,1,1.14486589499575
1,1,101,15,13,1.63514800700068,2,0.868674126002588,1,4.60390693899535
1,1,102,11,10,1.73526725400006,2,0.516619497997453,-1,1.14732197498961
1,1,103,19,16,1.30147283799306,2,0.699906306996127,1,0.209278313006507
1,1,104,4,4,0.617343232996063,3,0.970948248999775,-1,0.016932116006501
1,1,105,16,17,1.80208830500487,1,4.9037803169922,-1,1.38549481000518
1,1,106,29,22,1.46836017900205,1,0.405598134995671,1,1.02318417100469
1,1,107,29,19,1.96887593698921,1,0.505189987001359,-1,1.03190053498838
1,1,108,27,18,2.25274342500779,1,0.784973754998646,-1,1.06045691200416
1,1,109,11,9,1.8521481850039,2,0.920109402999515,-1,0.982152056996711
1,1,110,28,17,2.16928807701333,1,0.695951689005597,-1,0.574126740000793
1,1,111,6,5,0.834295421998831,3,0.448705918999622,1,3.29765848400712
1,1,112,4,4,0.700790603994392,3,0.446004028999596,-1,0.248013452001032
1,1,113,15,15,6.34036181500414,1,1.20843611400051,-1,0.0169160200020997
1,1,114,25,20,2.36939006000466,1,0.338443913002266,1,0.766483955012518
1,1,115,8,9,6.00681371999963,2,0.919104015003541,-1,0.107363771996461
1,1,116,9,7,1.8687514399935,2,0.646878436993575,-1,0.640419212009874
1,1,117,7,7,1.6852281659958,3,0.453864780007279,-1,3.59862817899557
1,1,118,14,15,5.28922747299657,1,0.899435458995868,-1,0.672509975003777
1,1,119,24,12,5.15581097999529,1,1.22363387400401,-1,0.0475950569962151
1,1,120,8,6,1.83537307400547,3,1.07417572200939,-1,0.121763410003041
1,1,121,14,11,5.35605962500267,1,0.88987339400046,-1,1.73676796199288
1,1,122,7,7,3.60418979200767,3,0.487954506999813,1,0.55190954200225
1,1,123,20,12,2.05238524799643,2,0.413168593004229,-1,1.06416480201005
1,1,124,11,10,4.97215484500339,2,0.903779596992536,1,0.277321080997353
1,1,125,6,5,1.06794936000369,3,0.817265484001837,-1,0.121952963992953
1,1,126,21,19,1.83542764000595,1,0.592880187003175,1,0.307015710000996
1,1,127,12,11,3.47055353899486,2,0.526187442999799,1,0.243114234996028
1,1,128,28,20,1.53509090100124,1,0.58565208100481,1,0.220245072006946
1,1,129,11,11,3.33707563599455,2,0.534071686008247,-1,0.403549467009725
1,1,130,11,9,3.73748670901114,3,0.91765383699385,1,0.0909752949955873
1,1,131,22,19,3.47059149699635,1,0.775582646005205,1,0.130082460993435
1,1,132,22,16,4.28808836400276,1,1.27005195899983,-1,0.461578459988232
1,1,133,17,14,3.27039036300266,2,0.718830609010183,-1,0.395835111994529
1,1,134,29,21,3.68749243499769,2,0.41642762698757,1,0.20260707399575
1,1,135,8,6,1.33492381501128,3,0.667322762004915,1,0.139222714002244
1,1,136,4,4,0.750851293996675,3,1.62235563001013,-1,0.455087806010852
1,1,137,13,10,2.95334121999622,2,0.336523674995988,1,0.133082478991128
1,1,138,4,4,0.634072660002857,3,0.656221590004861,-1,0.0249371349927969
1,1,139,22,11,2.41942064699833,2,0.591371941001853,1,0.283133849996375
1,1,140,22,16,1.7185889310058,1,0.691614753988688,-1,0.178655980998883
1,1,141,16,13,2.10235738300253,1,0.812752066995017,-1,0.135492203000467
1,1,142,21,16,1.91885807299695,1,1.0642435530026,-1,0.728425210007117
1,1,143,5,5,0.834235033005825,3,0.784523673995864,1,0.226522595010465
1,1,144,21,17,5.57291742799862,1,0.72831423599564,-1,0.28585588200076
1,1,145,25,14,5.65634903700266,2,0.460880911996355,-1,0.174300511993351
1,1,146,7,6,1.08456489200762,3,0.644220568996388,-1,0.229469201993197
1,1,147,16,12,2.10236182299559,1,0.644801761998679,1,1.19735363200016
1,1,148,29,16,1.63516179200087,1,0.707364223999321,-1,0.185464912996395
1,1,149,16,10,9.02662929499638,1,0.652488669002196,-1,0.115757363993907
1,1,150,16,9,1.91894564199902,2,0.882111052997061,-1,0.319884746000753
1,1,151,26,18,3.17031622999639,1,1.00522202700085,-1,0.239457433999632
1,1,152,6,5,0.884286653003073,3,0.942272728003445,-1,0.186749008993502
1,1,153,29,14,2.38598143000854,1,11.9531408189941,-1,0.905527206006809
1,1,154,7,6,1.11792829500337,3,0.553025317989523,-1,0.301890587012167
1,1,155,28,15,3.02008569899772,1,0.156283100004657,1,1.16911918400729
1,1,156,29,18,4.72185025399085,2,0.589520523993997,-1,0.209848523998517
1,1,157,7,6,1.28478066899697,3,0.764600726004574,1,1.35174686099344
1,1,158,4,4,0.817595004991745,3,0.424158677997184,-1,0.0170140500122216
1,1,159,16,13,3.55401778299711,1,0.799352153000655,-1,0.313681127998279
1,1,160,22,16,3.77085952200287,2,0.616662524989806,1,1.49074879700493
1,1,161,10,9,2.56965550599853,3,0.850893016991904,1,0.731834172009258
1,1,162,10,11,3.78749067700119,3,0.447329973991145,1,0.584047944008489
1,1,163,21,16,1.6519181199983,1,0.620388467010343,-1,0.190267194004264
1,1,164,16,13,3.13694820500677,1,0.360261184992851,-1,0.140775246996782
1,1,165,7,7,1.91881003200251,3,0.411386808002135,-1,0.149445774004562
1,1,166,6,6,2.18576079400373,3,0.639252899010899,1,0.775578083994333
1,1,167,25,14,1.8854670629953,1,0.437407197008724,-1,0.141793060000055
1,1,168,19,16,5.80649102800817,2,0.666421824003919,1,0.265206754003884
1,1,169,4,4,1.01782048300083,3,0.319361444009701,-1,0.140657372001442
1,1,170,20,12,7.97551833900798,2,0.811107216999517,1,2.0217453600053
1,1,171,17,14,2.00232804300322,1,0.71063492000394,1,0.587821786000859
1,1,172,22,15,6.69075843600149,1,0.425766704996931,1,0.556861180011765
1,1,173,9,8,2.75308493599005,3,0.578282130998559,1,0.278028802000335
1,1,174,11,9,2.18583195800602,3,0.398352688003797,1,0.224700509003014
1,1,175,15,10,2.48610540499794,2,0.620615580002777,-1,0.423146632005228
1,1,176,11,11,3.0200192600023,3,1.2698831170128,1,0.605376660008915
1,1,177,22,18,6.70750849999604,2,1.52169870400394,-1,0.0169271680060774
1,1,178,7,7,3.30376391700702,3,1.21371969400207,-1,1.69449128799897
1,1,179,11,8,3.32045447299606,3,1.41043811499549,1,0.619113252992975
1,1,180,27,20,5.23918913700618,2,1.57309080100094,1,0.55853338399902
1,1,181,7,8,2.25254378000682,3,0.401145611001994,1,0.0660210009955335
1,1,182,22,16,1.16803698999865,2,0.674650443994324,1,0.195056800002931
1,1,183,12,16,2.15248304700071,1,0.774181089000194,1,0.266147164002177
1,1,184,26,20,1.43494099199597,1,0.643795419004164,1,0.149072668995359
1,1,185,16,11,1.70201801900112,2,0.804072169004939,-1,0.774498907994712
1,1,186,11,9,2.2192168449983,2,1.19714411199675,-1,0.206558364006924
1,1,187,20,13,1.43496158499329,2,0.838853582012234,1,1.69409292199998
1,1,188,16,12,2.98665629098832,2,0.374388329000794,-1,0.242829829992843
1,1,189,14,10,1.73527554499742,2,0.802983651999966,1,0.267530245997477
1,1,190,11,9,4.38819697299914,2,1.14364596000814,1,0.292241999006364
1,1,191,13,12,4.75545682899246,2,0.677799949000473,-1,0.17413103900617
1,1,192,14,12,2.81982353600324,2,0.569903693001834,-1,0.293416094995337
1,1,193,14,14,5.22246465699573,2,0.470317496990901,-1,0.10222510699532
1,1,194,22,13,2.66969924500154,2,1.13994150000508,1,0.279181589998188
1,1,195,8,6,1.05117554499884,3,0.349055875005433,-1,0.986485301997163
1,1,196,7,7,4.98892723800964,3,0.902147024011356,1,0.155306232001749
1,1,197,27,15,2.21915445099876,1,1.41203568399942,1,1.05412299200543
1,1,198,11,11,4.90544982699794,2,1.33883129300375,-1,0.207841369992821
1,1,199,16,14,2.5194951829908,1,0.530637979012681,1,0.864336445010849
1,1,200,7,7,1.91895024200494,3,0.814859107995289,-1,0.233141299991985
1,1,201,29,17,2.95330436900258,1,0.788261623005383,1,0.679066958997282
1,1,202,15,15,5.13911025799462,1,0.861220564998803,1,0.149820587001159
1,1,203,10,9,2.90324548199715,3,0.501869716012152,1,0.0673871049948502
1,1,204,15,13,4.73854827298783,2,0.509326724000857,-1,0.252594952005893
1,1,205,20,12,2.46942535000562,2,0.822284838999622,-1,1.26493767499051
1,1,206,23,13,3.08677588000137,1,0.863060386007419,-1,0.910648734003189
1,1,207,7,8,3.37048043000686,3,0.754365196000435,-1,0.382833966999897
1,1,208,16,12,4.60510656599945,1,0.58159754499502,-1,0.559706386993639
1,1,209,22,18,5.80654437700287,1,0.650604713999201,1,0.171272888008389
1,1,210,6,6,2.35268783700303,3,0.745680124993669,-1,0.182076846991549
1,1,211,16,14,13.948795852004,2,0.867474818995106,-1,1.55550356699678
1,1,212,10,10,3.53728049900383,3,0.9940932180034,1,0.235280410008272
1,1,213,7,7,1.16798522500903,3,0.435697017004713,-1,0.276246150009683
1,1,214,13,12,3.22028824900917,2,0.334521652999683,-1,0.146108610002557
1,1,215,29,19,2.40269389099558,1,0.929024586992455,-1,0.359031529995264
1,1,216,16,15,1.65190615098982,2,0.412569409993012,1,0.991433524002787
1,1,217,22,16,8.75973698499729,2,0.92374025999743,1,0.14367231700453
1,1,218,29,21,6.87428242000169,2,1.12561743300466,1,0.418256024990114
1,1,219,11,9,3.50397669999802,3,1.1172781179921,1,0.595056752004893
1,1,220,12,13,6.12344803799351,3,1.03792373598844,1,1.23902017201181
1,1,221,19,13,6.87434834500891,2,1.68103705500835,-1,0.477931232002447
1,1,222,22,14,4.8887638610031,1,1.18723328498891,-1,1.5179928150028
1,1,223,11,10,3.58733557199594,3,1.26570841000648,-1,0.129114384995773
1,1,224,20,12,6.10679484200955,1,0.353447854999104,-1,0.190250302010099
1,1,225,12,11,5.07239060499705,2,0.551407926002867,-1,0.107996220001951
1,1,226,12,14,5.10565113999473,2,0.582963730994379,-1,0.121258629995282
1,1,227,25,20,3.37049907000619,1,0.96290616299666,1,0.0312994900014019
1,1,228,29,18,1.86876997699437,1,1.09868550600368,1,0.0411034039861988
1,1,229,4,4,3.1035091800004,3,0.822326929002884,-1,0.0802929749916075
1,1,230,12,10,3.45381272899976,2,1.38436060599633,-1,0.69940079501248
1,1,231,16,13,4.18796696400386,2,0.514546910999343,-1,0.768784774001688
1,1,232,19,14,4.28816589999769,2,0.621566435991554,-1,0.655846359004499
1,1,233,18,12,2.50279907099321,1,0.716696259987657,-1,0.266270146006718
1,1,234,9,9,3.38715192000382,3,1.01036664399726,-1,0.565764022001531
1,1,235,28,20,3.30367481200665,2,1.46464474900858,1,0.976261699994211
1,1,236,9,8,1.98562050399778,3,1.94897781900363,-1,1.56052941500093
1,1,237,13,10,1.93551780399866,3,0.839239588996861,1,0.544956410987652
1,1,238,18,20,4.38827429700177,1,0.616451421999955,1,0.0990517550089862
1,1,239,25,18,4.93872181199549,2,0.767047870001988,1,0.305448701998102
1,1,240,9,9,2.85323870999855,3,0.35803586000111,1,0.810961319992202
2,1,1,25,16,6.1902543840115,2,3.11141894798493,-1,3.22220991097856
2,1,2,20,12,5.18935895501636,2,2.89631821698276,-1,2.08387495897477
2,1,3,9,8,3.12115383194759,3,3.27246724697761,-1,4.13416878302814
2,1,4,11,9,1.75222147698514,2,3.02973949804436,1,1.83766266796738
2,1,5,15,13,3.12066009803675,2,3.76877470698673,-1,1.99277587502729
2,1,6,15,15,3.1369437459507,2,1.6722302439739,-1,2.3195521190064
2,1,7,21,21,2.75320097000804,1,1.40977324801497,-1,3.0196847099578
2,1,8,14,10,2.21916553803021,2,1.18611988000339,-1,1.44356226897798
2,1,9,9,8,4.05464297800791,3,1.60677787498571,1,3.37556928495178
2,1,10,6,6,2.66975555504905,3,1.80925299198134,1,3.9048210750334
2,1,11,22,23,6.1901922999532,2,3.16341378900688,-1,1.50956842099549
2,1,12,24,26,4.22161632502684,1,1.84122766403016,-1,1.88963186903857
2,1,13,9,9,2.66986508003902,1,2.00956379197305,-1,2.49104357301258
2,1,14,8,12,6.42399799404666,2,2.59895989898359,-1,6.83276119502261
2,1,15,23,19,4.35484325297875,1,2.09803405101411,1,6.87197562900838
2,1,16,7,9,2.78660254995339,3,0.934353607008234,1,2.66833071800647
2,1,17,11,10,4.20471012202324,3,0.896123158978298,-1,2.06332190398825
2,1,18,14,17,3.13683525496162,2,3.00404699298088,1,3.40414468001109
2,1,19,5,5,2.21932063897839,3,2.73363134800456,-1,3.46533560799435
2,1,20,7,7,3.07017209200421,3,0.952083693002351,1,1.24232900701463
2,1,21,14,19,2.75314957497176,2,1.58378975297092,1,2.10591303301044
2,1,22,5,5,2.18582987302216,3,0.987197794951499,-1,1.2461528040003
2,1,23,4,4,1.33492181502515,3,0.908195141993929,-1,3.62664924497949
2,1,24,28,25,3.77095827501034,2,1.54179280600511,1,3.65073586005019
2,1,25,24,28,2.38598866295069,1,1.62146660295548,1,2.71879465098027
2,1,26,21,20,4.02113044203725,2,1.69126124796458,-1,6.50429231498856
2,1,27,4,4,2.11911783198593,3,1.54990001796978,-1,1.84832618001383
2,1,28,10,13,2.71987018204527,2,1.58372355997562,-1,1.49002441001358
2,1,29,28,30,1.63522232999094,1,1.39561010198668,1,1.75636646099156
2,1,30,29,32,2.13580865500262,1,1.47933396400185,1,2.10287020099349
2,1,31,25,25,1.63525864796247,2,4.84429281996563,1,2.08862922701519
2,1,32,16,16,1.66853233001893,2,2.68971274298383,-1,1.614437436976
2,1,33,17,14,2.43607271299697,3,1.26320536300773,-1,2.04632900498109
2,1,34,7,8,2.95339013496414,3,1.34701262199087,1,2.69651139702182
2,1,35,15,17,2.80307029403048,2,3.70416426594602,-1,3.50771233596606
2,1,36,4,4,1.23471494100522,3,0.866865843010601,-1,5.43444667500444
2,1,37,15,16,2.7030794119928,3,0.994402865995653,-1,1.58885879599256
2,1,38,29,30,1.68528777000029,1,2.09806620498421,1,2.12795659300173
2,1,39,22,29,2.00219788000686,2,1.18921461404534,1,4.21585358498851
2,1,40,24,23,2.25262618996203,2,1.07804438099265,-1,1.57170265098102
2,1,41,9,11,3.55398240999784,3,0.927641924994532,-1,1.11592240596656
2,1,42,29,18,2.2359099650057,2,1.12236191600095,-1,3.62294025201118
2,1,43,7,7,3.02003965800395,3,1.74773640395142,-1,1.46436349995201
2,1,44,7,8,2.25256789801642,3,1.37511014501797,1,2.20878497802187
2,1,45,9,9,3.6375012419885,3,1.04072088003159,-1,1.89631359599298
2,1,46,28,18,1.91888816398568,2,3.77416618296411,-1,6.82894465600839
2,1,47,11,10,6.65745488199173,2,1.55682041897671,-1,1.00838602002477
2,1,48,12,15,1.53511992003769,2,1.0423902659677,-1,0.979726938006934
2,1,49,11,9,2.01890505698975,2,1.76948595797876,-1,5.6444147490547
2,1,50,12,12,2.00225686799968,1,1.11417065997375,-1,2.89660293597262
2,1,51,20,18,3.05348896502983,1,0.89637551800115,-1,2.63088447594782
2,1,52,12,13,2.35280452499865,2,0.82396847801283,-1,2.96829960105242
2,1,53,16,17,2.20252119697398,2,0.98650948604336,1,0.757755342987366
2,1,54,11,12,3.52064324199455,2,0.938221493037418,-1,0.925550660002045
2,1,55,10,12,5.18897538300371,2,0.947076552023645,1,2.11204852798255
2,1,56,19,19,2.31925160501851,2,1.30059558298672,1,0.754139787983149
2,1,57,7,7,2.53614221996395,3,0.828757352021057,-1,1.32485546503449
2,1,58,4,4,1.16813316504704,3,1.32626654999331,-1,1.05937423103023
2,1,59,16,14,7.10789273696719,2,1.8106661530328,1,1.36428888497176
2,1,60,8,9,3.07014203502331,2,1.12894793896703,-1,2.2544847149984
2,1,61,29,21,3.03704640798969,2,11.9839896559715,1,2.79068076499971
2,1,62,5,5,1.48535616800655,3,1.13548298995011,-1,1.27481252897996
2,1,63,20,21,1.83545320801204,1,0.759403779986314,1,1.09142529801466
2,1,64,11,16,2.31923767499393,2,1.17170470597921,1,1.02356578496983
2,1,65,12,13,2.75308399501955,3,1.20763024495682,1,2.36080457101343
2,1,66,7,7,2.40265223698225,3,0.891945710987784,-1,2.08292532502674
2,1,67,22,17,2.70307056000456,1,0.710481505957432,-1,1.18896224495256
2,1,68,4,4,1.10129493504064,3,1.06070712400833,-1,0.765058108023368
2,1,69,13,15,1.80218476295704,1,0.958010756003205,1,1.68238696904154
2,1,70,16,16,1.41824889200507,2,0.85230261500692,1,2.99698015901959
2,1,71,16,16,1.48497211502399,2,4.36298795201583,1,1.39426271500997
2,1,72,12,10,3.07002564298455,2,1.06432133499766,-1,1.44787841802463
2,1,73,17,13,3.01996257604333,1,0.777133845025674,-1,1.92596120503731
2,1,74,7,8,2.7363887699903,3,1.09800158004509,1,1.87995526602026
2,1,75,4,4,1.10135110997362,3,0.763423694006633,1,0.912219306977931
2,1,76,16,10,3.18698400998255,2,1.24650560104055,1,1.71117298101308
2,1,77,7,9,2.65314335696166,3,0.760407396999653,1,0.796846390003338
2,1,78,10,9,4.05453605396906,3,1.01137291901978,-1,2.08555692300433
2,1,79,15,11,2.70303060201695,2,1.06039694801439,-1,2.14703601005021
2,1,80,27,15,1.50180951197399,2,0.811973033007234,-1,0.366793472960126
2,1,81,14,14,2.51955738500692,2,2.45415465004044,1,1.27696901303716
2,1,82,17,16,2.26921255601337,2,3.13939545501489,1,2.02006272599101
2,1,83,7,8,2.81985787703888,3,1.75538663798943,-1,2.03759147098754
2,1,84,29,18,3.00334894104162,2,1.118273220025,1,1.00325887801591
2,1,85,11,9,2.91996965301223,1,1.69870117498795,-1,0.447751652973238
2,1,86,19,17,2.73648200498428,2,1.1227375069866,1,2.12816801201552
2,1,87,28,15,1.56843433901668,2,1.99026012397371,-1,3.92014982801629
2,1,88,4,4,1.15137263498036,3,0.710788362950552,-1,1.23704884800827
2,1,89,4,4,1.11792688805144,3,0.893594391003717,-1,0.0531459999619983
2,1,90,6,5,1.3181868030224,3,0.551614828989841,-1,1.29160113399848
2,1,91,7,7,2.05233924201457,3,0.686569868004881,-1,0.397819542034995
2,1,92,9,9,2.75313542998629,3,0.801721569034271,-1,0.772174044977874
2,1,93,14,11,2.78647701698355,3,1.0168737199856,-1,1.53888503601775
2,1,94,16,12,1.30145776097197,2,1.10100106697064,-1,1.25132527301321
2,1,95,22,16,1.43496864900226,2,1.94411814300111,1,2.20289974298794
2,1,96,4,4,1.10132290696492,3,1.30474311998114,-1,0.559204192948528
2,1,97,11,10,2.60291169199627,2,1.08533285098383,-1,1.12458459101617
2,1,98,6,6,2.45278240402695,3,1.13384701800533,-1,1.0968433819944
2,1,99,22,12,1.70190435496625,3,0.825606568017974,-1,0.963777530007064
2,1,100,9,9,2.95329998701345,3,0.812449677963741,1,1.19775263400516
2,1,101,16,12,2.86991075595142,2,0.532414880988654,1,1.8095975460019
2,1,102,7,7,2.35272300697397,3,1.71869910805253,-1,1.08397654996952
2,1,103,7,9,2.33602159301518,3,0.55875757499598,1,1.41904025798431
2,1,104,11,13,4.70513466000557,2,0.957683168991935,1,5.99438185500912
2,1,105,18,14,3.80417658004444,1,0.600643816986121,1,2.61910981300753
2,1,106,22,19,1.73532554000849,2,0.880597916024271,1,3.08799895294942
2,1,107,7,8,4.40496553003322,3,1.02238643099554,1,2.95243050297722
2,1,108,26,16,3.43711424601497,2,0.875765446980949,1,0.730730816023424
2,1,109,6,6,3.57063190301415,3,1.05337453098036,-1,0.948297725000884
2,1,110,22,15,2.80313310603378,2,1.11512786603998,-1,1.76065643096808
2,1,111,7,9,2.88661719695665,3,0.87777277798159,1,1.11632136401022
2,1,112,13,10,3.18694051000057,2,1.27842923701974,1,1.35786612099037
2,1,113,22,20,1.86882532201707,2,2.99309098999947,1,1.6159369800007
2,1,114,11,9,1.7687318950193,2,1.13597599096829,-1,0.316557911981363
2,1,115,8,8,2.46941565099405,3,1.18646903702756,-1,0.325775011966471
2,1,116,22,13,1.91891495301388,2,0.805233201012015,-1,2.24740552500589
2,1,117,16,15,2.31932371697621,2,0.688662654021755,1,0.878660882008262
2,1,118,11,11,3.77094823902007,3,1.72793168097269,1,0.660466358996928
2,1,119,22,17,2.70298498001648,1,1.21899069100618,1,0.996080212993547
2,1,120,29,16,2.78645831200993,2,1.020062769996,-1,2.16410420002649
2,1,121,13,8,1.43495869997423,2,3.37311730301008,-1,4.95842684002127
2,1,122,21,14,2.76977271103533,2,3.57447374000913,1,1.75004187598825
2,1,123,16,16,1.2847966850386,2,0.836422255029902,1,0.733125865983311
2,1,124,29,20,1.55175374995451,2,0.852675759990234,1,0.365338417992461
2,1,125,26,10,1.28482759196777,1,1.19972524099285,-1,0.545682781026699
2,1,126,14,9,3.03684462502133,1,1.52947293699253,-1,0.374629762023687
2,1,127,29,14,1.96890198299661,2,0.587656467978377,1,1.02333826303948
2,1,128,4,4,1.06789216701873,3,0.543268181965686,-1,1.91664894099813
2,1,129,22,9,2.06898911099415,1,1.24365241301712,-1,0.016915375017561
2,1,130,8,9,2.18584156298311,3,0.730853613000363,-1,0.912772821029648
2,1,131,20,12,1.91891534696333,2,0.689781391003635,-1,0.905001282982994
2,1,132,16,10,1.65192937199026,2,0.751057380985003,-1,1.48195212800056
2,1,133,4,4,0.984467634989414,3,0.550339860958047,-1,0.746937292045914
2,1,134,29,12,5.03900172299473,2,0.878830150992144,-1,1.63063804496778
2,1,135,22,9,5.25596020999365,2,1.0688994260272,-1,0.180283738009166
2,1,136,29,15,2.78644248197088,2,4.47820614703232,-1,2.23265931499191
2,1,137,11,14,5.33932147000451,2,1.58612089103553,1,0.683567009982653
2,1,138,11,8,2.40273595997132,3,0.595251057995483,-1,0.398850853962358
2,1,139,26,13,1.66849384095985,2,1.41376646299614,-1,1.11207926803036
2,1,140,11,12,4.6218098080135,2,0.624608015990816,-1,0.811084749002475
2,1,141,20,13,3.20362212101463,2,0.552921262977179,1,1.67746170697501
2,1,142,22,15,4.47160108201206,2,0.693323965009768,-1,2.2847990290029
2,1,143,21,9,2.28587888902985,2,0.724238537950441,-1,0.66611113602994
2,1,144,7,7,3.22030698700109,3,1.07489292701939,-1,1.07460472895764
2,1,145,4,4,0.984502414998133,3,0.790649623028003,-1,0.689760653011035
2,1,146,29,16,3.63742874696618,2,0.672592949995305,-1,1.53514009597711
2,1,147,25,20,2.73638926597778,1,2.0635695750243,1,0.918526210007258
2,1,148,6,6,2.3526224399684,3,0.712299595004879,1,0.446964838018175
2,1,149,16,12,3.57070302701322,1,0.970879482978489,-1,1.47856197005603
2,1,150,29,16,4.9054388969671,1,2.21503658796428,1,1.26477087801322
2,1,151,19,10,2.11905824602582,2,0.898126497049816,-1,1.36095116101205
2,1,152,13,9,2.23587505199248,2,0.974581626011059,-1,0.745948004012462
2,1,153,22,13,2.58622671000194,2,1.05422641598852,1,1.94054152001627
2,1,154,24,17,2.28596246498637,2,1.44100383995101,1,0.745615734020248
2,1,155,28,14,1.88550218299497,2,1.92981694999617,1,4.47012722596992
2,1,156,18,18,4.88882469700184,2,1.01967009401415,1,4.9090979010216
2,1,157,29,21,3.65413147496292,2,3.20674379600678,1,2.47681900998577
2,1,158,12,9,3.72085577104008,2,1.01247762900311,-1,0.775123760977294
2,1,159,4,4,1.06793843500782,3,0.555499023001175,-1,1.20665837801062
2,1,160,16,10,1.83545254101045,2,0.598640934971627,-1,0.929545745020732
2,1,161,22,18,1.78541845700238,2,1.02552273403853,1,0.410945735988207
2,1,162,29,25,1.60179892805172,2,0.86308674904285,1,0.423846074030735
2,1,163,7,8,2.40276613802416,3,0.971937622991391,1,0.559777024027426
2,1,164,19,16,7.39157263503876,2,2.18605052499333,1,1.57929846999468
2,1,165,5,7,2.48615921003511,3,0.9666117230081,-1,0.417251522012521
2,1,166,25,18,2.23589611198986,2,0.961523245030548,1,4.68581376998918
2,1,167,10,9,2.28594277199591,3,2.08616977796191,-1,0.364272227976471
2,1,168,4,4,1.13468354998622,3,1.64527486695442,-1,0.349344460002612
2,1,169,7,7,2.71976576000452,3,0.803811749967281,-1,0.406851468025707
2,1,170,6,6,3.25362814002438,3,0.772128985961899,-1,3.4237918430008
2,1,171,20,12,2.05237640300766,2,0.799903495004401,1,1.402571061044
2,1,172,11,10,3.5373221320333,3,1.10493301803945,1,1.189946812985
2,1,173,8,8,2.63633310998557,3,0.778500671032816,-1,1.07062836101977
2,1,174,17,16,3.47045679501025,2,0.965854295005556,-1,1.50632603501435
2,1,175,11,10,3.52059297997039,2,0.946854359004647,1,2.87249551102286
2,1,176,11,11,3.93770206900081,2,0.858610771014355,1,0.307007785013411
2,1,177,7,8,2.81984323897632,3,0.732576932001393,-1,1.64229427505052
2,1,178,15,13,2.60291569499532,3,0.470207540027332,-1,1.52655044803396
2,1,179,22,17,3.48728687502444,1,2.44310360500822,1,0.570719894953072
2,1,180,8,8,2.45278916601092,3,0.622118120023515,-1,0.622944157978054
2,1,181,4,4,1.36825823999243,3,1.65668956399895,-1,0.82404294598382
2,1,182,11,12,2.66968486900441,3,0.846623488992918,1,1.16784768999787
2,1,183,12,12,4.42160060600145,3,0.745864475029521,1,0.510633427998982
2,1,184,15,10,2.96998854499543,1,0.612913381017279,1,1.74322191800456
2,1,185,4,4,0.917715242016129,3,0.854829773015808,-1,0.279079391038977
2,1,186,6,6,1.80204992898507,3,1.08198369300226,-1,1.33579476096202
2,1,187,25,14,2.50285852496745,2,0.921026106982026,1,1.46279883600073
2,1,188,26,18,1.91880924598081,2,0.575368994963355,1,0.348039545002393
2,1,189,16,15,1.83553373697214,2,0.588149357994553,1,0.5357504709973
2,1,190,22,16,1.41827753098914,2,0.695943550032098,1,0.399749980017077
2,1,191,6,7,2.66964854596881,3,0.350552340969443,1,0.466733638022561
2,1,192,11,9,4.10452761600027,2,0.891637608001474,-1,0.163090131012723
2,1,193,23,16,1.81870738195721,2,0.880293919995893,1,0.336850474006496
2,1,194,16,12,1.50174575200072,2,0.608586539980024,1,2.37979275500402
2,1,195,26,16,2.25254558201414,2,0.612801448034588,-1,0.631522302050143
2,1,196,27,18,2.25259143498261,1,1.8441061329795,1,1.0104816199746
2,1,197,11,10,4.33814886800246,2,4.06270143797155,1,4.63530665304279
2,1,198,22,12,1.6852265750058,2,0.875486058008391,-1,0.899970816040877
2,1,199,27,10,1.7518936029519,2,2.30899149202742,-1,1.17679156298982
2,1,200,10,9,3.78761505498551,3,1.54026168602286,-1,0.6488397080102
2,1,201,27,12,3.60404205397936,1,0.544328832009342,-1,1.82159122696612
2,1,202,14,11,3.63739405001979,2,1.17785598605406,-1,1.49152029503603
2,1,203,11,9,3.93775325204479,2,0.740910860011354,-1,0.274228154972661
2,1,204,16,10,1.80203586100833,2,1.14011394500267,-1,0.25699500303017
2,1,205,7,8,2.61959041800583,3,0.923451124981511,-1,0.425325980992056
2,1,206,7,8,4.83878858800745,3,0.838301245006733,1,0.808026293001603
2,1,207,12,12,4.5050870400155,2,0.702178207982797,1,5.30883089598501
2,1,208,7,7,3.05345966998721,3,0.426300944993272,-1,0.258613853016868
2,1,209,19,17,3.6207311800099,2,3.08291148999706,1,0.872691734984983
2,1,210,28,16,2.31931615498615,2,0.703161304991227,1,1.27798182499828
2,1,211,9,9,5.1223425270291,3,0.929609888000414,1,0.823231760994531
2,1,212,11,9,4.2380932829692,3,0.713865934987552,-1,1.0481432970264
2,1,213,22,14,2.4361233250238,2,0.71884179499466,1,1.40429617196787
2,1,214,21,16,1.98558504000539,2,3.15870440501021,1,0.817127277026884
2,1,215,16,16,2.4194117099978,2,1.55246227799216,1,3.35512980096973
2,1,216,9,10,3.82089564902708,3,0.661311679985374,1,0.630055411020294
2,1,217,28,16,1.66861536196666,2,2.45720065099886,1,1.05439939594362
2,1,218,25,14,2.41936419799458,1,1.40466836298583,-1,1.1663610629621
2,1,219,7,7,2.43611000000965,3,0.529378795996308,-1,0.311722006008495
2,1,220,29,15,3.12022601999342,2,1.15878385299584,-1,0.546803495963104
2,1,221,18,14,2.28594412497478,2,1.65859158296371,-1,1.25039929599734
2,1,222,29,19,2.0523566599586,2,0.675129719020333,1,0.371653906011488
2,1,223,4,4,1.01787826803047,3,0.604544543020893,-1,0.59933382604504
2,1,224,7,7,2.81988411501516,3,0.547145836986601,-1,0.120594581007026
2,1,225,10,9,5.35594370000763,3,0.848599359975196,-1,0.593243638053536
2,1,226,11,10,3.38709760899656,3,0.591669754998293,1,1.09895113599487
2,1,227,29,16,2.81989117199555,1,0.160230342007708,1,1.15747952199308
2,1,228,29,20,2.2860035370104,1,0.824100294965319,1,3.8103602679912
2,1,229,27,17,2.55285918497248,2,1.02788032102399,-1,0.325652284023818
2,1,230,7,8,2.46948162704939,3,0.681229854992125,1,1.03873572399607
2,1,231,13,11,2.35268561000703,3,0.885990590031724,1,0.917374719982035
2,1,232,14,12,3.93777776998468,2,1.11503070296021,1,0.264581126975827
2,1,233,7,8,2.41943198401714,3,0.486902980017476,1,0.142991446016822
2,1,234,7,7,2.48615745501593,3,0.705253102001734,-1,0.399933225999121
2,1,235,16,13,5.15580384404166,2,0.807986275991425,1,1.31449261901435
2,1,236,8,9,2.5695930699585,3,0.693611523020081,1,0.317439311009366
2,1,237,10,10,3.63743755000178,3,1.41923615999985,1,1.0433993479819
2,1,238,16,14,4.57179860997712,2,0.852183584996965,1,1.5085448360187
2,1,239,29,16,2.23589107999578,2,1.16772171098273,-1,1.95519555895589
2,1,240,17,14,4.75531878700713,2,0.913741538010072,1,1.77487326599658
3,1,1,22,12,3.62119485298172,2,2.06907076499192,-1,1.67455285601318
3,1,2,10,9,5.95784908597125,2,3.77112730097724,-1,0.891726360016037
3,1,3,29,15,1.90250120998826,1,5.35487823799485,-1,2.03217764798319
3,1,4,25,22,2.47031976503786,3,3.08620337100001,-1,1.16287060000468
3,1,5,28,17,2.18617748998804,3,1.05874953098828,1,2.32960891997209
3,1,6,26,18,4.32125361700309,2,1.21679625799879,-1,3.04096172796562
3,1,7,16,14,2.58700401498936,3,0.665072430041619,-1,0.529323138005566
3,1,8,9,9,4.07099317200482,3,0.815244238008745,1,1.47144637396559
3,1,9,11,13,4.02364431804745,1,1.26826693100156,-1,1.98711281502619
3,1,10,22,20,7.37408408802003,2,1.22836395603372,1,1.93320159596624
3,1,11,7,8,4.02126000099815,3,1.39486127498094,-1,2.58069646504009
3,1,12,11,13,4.50392684695544,3,0.894226618984248,1,0.419593052996788
3,1,13,25,19,2.5528611469781,3,10.0425243829959,-1,3.59947562601883
3,1,14,16,17,1.61919701501029,2,1.12090329499915,-1,3.15082529501524
3,1,15,7,8,2.73694557300769,3,0.667450366017874,1,2.35459848295432
3,1,16,7,8,5.50740185502218,3,0.398546686978079,1,3.12902628304437
3,1,17,7,9,5.12275274703279,3,0.351448946981691,1,0.396415963012259
3,1,18,13,16,4.15517589502269,3,0.62492845999077,-1,1.69030039600329
3,1,19,24,21,4.25483643898042,2,0.41218389995629,-1,1.43774308200227
3,1,20,16,14,1.88493084599031,2,2.44618004001677,-1,0.7744245880167
3,1,21,12,16,2.76962047303095,1,0.530914240982383,-1,0.398505742021371
3,1,22,6,7,2.73693709500367,3,1.1602670350112,1,0.363740565022454
3,1,23,28,32,2.76973092701519,2,3.07251148601063,1,0.477247310976963
3,1,24,29,21,4.60450558498269,2,1.44407325400971,-1,3.94096066796919
3,1,25,25,18,4.25416194804711,2,0.883626502996776,-1,1.9153353080037
3,1,26,22,14,3.47067318001064,2,0.668217942002229,-1,0.363778339989949
3,1,27,22,16,8.65969934000168,1,1.11039233300835,-1,2.58625712699722
3,1,28,20,14,2.88674681499833,2,2.64794298599008,-1,1.29372765100561
3,1,29,4,4,2.85323737101862,3,0.302035262982827,-1,5.63540389301488
3,1,30,4,4,1.8185528080212,3,1.02377104497282,-1,1.39945695997449
3,1,31,6,6,2.18525334796868,3,2.40107265999541,1,1.35281670297263
3,1,32,22,15,2.08568633702816,3,2.57784917601384,-1,1.1878564049839
3,1,33,17,15,6.62374116003048,2,0.901733784994576,-1,1.2989755179733
3,1,34,6,8,2.78688598203007,3,0.536247883050237,-1,1.31716314598452
3,1,35,16,15,5.47215582302306,2,1.17986387101701,-1,1.87014334800187
3,1,36,18,19,2.70240454602754,2,0.814879020035733,-1,0.641343859955668
3,1,37,10,12,2.13581344299018,3,0.749216821044683,-1,1.07335881999461
3,1,38,21,20,5.52299774903804,2,0.732989522977732,1,0.736315835965797
3,1,39,8,9,1.51927070698002,3,0.868252362997737,1,0.307360421982594
3,1,40,13,17,6.83999565802515,2,1.79784276301507,1,0.758212414977606
3,1,41,29,28,2.51919858000474,2,1.15055671101436,1,2.43298538296949
3,1,42,11,11,1.78546948201256,2,2.75497713702498,-1,1.7572971630143
3,1,43,4,4,1.51889892795589,3,0.816287118999753,1,1.41805556602776
3,1,44,16,12,2.01844268298009,3,2.93470963096479,-1,1.55203046696261
3,1,45,4,4,0.918175922008231,3,0.946971830038819,1,0.565775285009295
3,1,46,4,5,1.21905556297861,3,2.14786856301362,1,0.998386975028552
3,1,47,17,20,6.54032486199867,2,1.13697883900022,1,0.237639304948971
3,1,48,7,9,2.90264911699342,3,3.79178677202435,1,0.614966545021161
3,1,49,14,16,1.93561611999758,3,0.679238343029283,1,2.71785039099632
3,1,50,8,14,5.45628304296406,3,1.06917431997135,1,7.27524785598507
3,1,51,29,34,4.45544180402067,1,1.66849053598708,1,1.14640416798647
3,1,52,16,16,3.40357151499484,2,0.538291683013085,1,0.0172813149983995
3,1,53,22,21,6.2064942450379,2,0.537251085974276,1,0.428987986990251
3,1,54,11,10,3.18651421298273,2,0.946280052012298,-1,0.765657689946238
3,1,55,28,20,5.20645035302732,2,0.678672016016208,1,0.158242369012441
3,1,56,21,18,3.30347920500208,2,1.1550136290025,-1,0.0179575480287895
3,1,57,4,5,1.38438414497068,3,0.693075073009823,1,0.715524163970258
3,1,58,4,4,1.0510888340068,3,0.805713661015034,1,1.28686269395985
3,1,59,26,22,2.50259549199836,3,1.43956970097497,1,0.61585661501158
3,1,60,29,28,2.35267876100261,2,1.18001470499439,-1,1.8218794830027
3,1,61,16,9,3.42150266095996,1,0.932638159021735,-1,1.4007066040067
3,1,62,11,13,3.18618862703443,2,0.675092519028112,-1,4.44987467100145
3,1,63,22,23,2.23528655798873,2,1.0189372029854,-1,1.1800194879761
3,1,64,11,12,2.65243380801985,2,0.601509854954202,1,0.363720338034909
3,1,65,16,16,4.6213933750405,2,1.25895315298112,-1,2.37866323499475
3,1,66,24,19,4.00365941994824,2,2.16564979002578,1,1.55202271800954
3,1,67,22,21,2.05312784801936,2,1.59536449803272,-1,1.21155841002474
3,1,68,7,9,1.5017181049916,3,1.15719224803615,-1,2.1433158289874
3,1,69,12,13,3.85458247200586,2,0.908981360029429,-1,0.042541419970803
3,1,70,29,36,3.08623420802178,3,5.71459671098273,-1,2.40975541301304
3,1,71,24,22,2.4694670829922,2,2.44533213501563,-1,1.17077740700915
3,1,72,14,17,7.24171787797241,3,1.06456926499959,1,1.67181101400638
3,1,73,16,16,4.42213902703952,2,1.22254980896832,-1,1.37524013099028
3,1,74,19,21,4.65513233002275,2,0.998615975026041,1,6.85707607597578
3,1,75,13,12,1.61859634896973,3,1.54243694100296,-1,2.00091109803179
3,1,76,18,17,5.82290888600983,2,4.44096561596962,1,4.07867755595362
3,1,77,14,9,1.16700315702474,2,0.812793478020467,-1,1.03735145000974
3,1,78,5,5,1.35193934297422,3,0.778573410992976,1,5.39743293297943
3,1,79,9,10,2.15274164796574,3,0.72637945698807,-1,1.5951761190081
3,1,80,19,18,4.2711968870135,3,1.55386297596851,-1,2.10009557101876
3,1,81,7,10,3.93774389702594,3,1.3803397329757,-1,0.942413848999422
3,1,82,6,6,1.75247368501732,3,0.760466303967405,-1,0.860761145013385
3,1,83,21,15,2.80292476498289,3,4.2624194730306,1,10.0253873100155
3,1,84,11,11,2.38606809498742,3,2.46097069699317,-1,3.10650211799657
3,1,85,7,8,2.52031315298518,3,1.32929710997269,-1,0.677365701005328
3,1,86,10,10,3.45366566500161,3,1.16295774496393,-1,0.46203679201426
3,1,87,11,13,1.73566777195083,3,0.773516912013292,1,2.86374107998563
3,1,88,28,19,1.78484300500713,3,1.59061102801934,-1,3.75206967099803
3,1,89,5,5,1.18405275500845,3,0.344718266976997,-1,0.972776789974887
3,1,90,4,4,0.8844787980197,3,0.512733788986225,-1,0.654096613987349
3,1,91,15,12,4.17119179002475,2,1.22089683800004,-1,1.18977525096852
3,1,92,4,4,0.816772865015082,3,0.595211672945879,1,0.854216734005604
3,1,93,8,10,2.63716199796181,3,0.793124295014422,-1,3.73247456300305
3,1,94,22,16,1.71835613099393,3,0.825559394957963,-1,2.60994876502082
3,1,95,11,16,3.22065909800585,3,0.654401626030449,-1,2.98331297002733
3,1,96,11,17,4.63853116496466,2,1.03754031297285,-1,2.33254714001669
3,1,97,29,28,3.15366872801678,1,0.686107653018553,-1,2.98839768196922
3,1,98,26,19,2.05294619302731,2,1.62134549400071,-1,1.38980357098626
3,1,99,20,999,4.9546189000248,2,16.9331186399795,-1,0.648340892978013
3,1,100,10,9,1.20097074098885,3,6.29852192103863,-1,0.604026365035679
3,1,101,5,6,1.28488610498607,3,0.899965803022496,1,0.0480554180103354
3,1,102,27,20,4.12080082303146,1,0.628240831021685,1,1.133896208019
3,1,103,7,8,1.81900089501869,3,0.767029881011695,-1,0.79291815101169
3,1,104,27,16,3.00329776498256,2,1.02552907197969,1,3.96900383103639
3,1,105,29,26,1.76837672200054,2,4.33298992901109,-1,3.62924711802043
3,1,106,7,8,2.85295550199226,3,0.932272762991488,-1,0.807837612985168
3,1,107,12,20,3.17013000301085,2,1.85498840099899,1,1.32571957999608
3,1,108,29,25,1.78493812901434,2,0.946727056056261,1,0.0769940359750763
3,1,109,29,34,5.52388532803161,2,3.57648185599828,1,0.360696690971963
3,1,110,12,12,4.5712881879881,1,1.12781409698073,-1,0.380102219991386
3,1,111,22,22,3.3205525240046,2,1.1757453730097,1,0.546826831006911
3,1,112,20,19,2.81919338996522,2,0.964566867041867,-1,0.704405702999793
3,1,113,18,20,3.62110051396303,2,0.63754563301336,1,0.293381417985074
3,1,114,7,7,2.00236391701037,3,0.309752300032414,-1,1.59483805997297
3,1,115,17,19,2.20264900004258,2,3.53140466997866,-1,1.45394158700947
3,1,116,14,16,3.28698333498323,2,0.861634195025545,-1,0.406599526002537
3,1,117,11,14,3.38693219301058,2,0.641282132011838,-1,0.0176825899980031
3,1,118,7,12,3.80394293699646,3,1.01450360304443,-1,0.102707584970631
3,1,119,28,20,3.05298349901568,2,0.781796588969883,-1,2.16823455702979
3,1,120,13,19,2.60262041003443,2,1.10207645705668,1,0.170036196010187
3,1,121,7,8,1.78506688500056,3,0.891119575011544,1,6.00009246001719
3,1,122,15,14,3.05318716500187,2,0.893471811024938,1,0.859683863003738
3,1,123,4,4,1.13455218699528,3,0.437092910986394,1,1.66986265097512
3,1,124,6,7,2.61967668001307,3,1.70758089004084,-1,0.0637590009719133
3,1,125,19,18,2.53599335701438,2,1.22579545195913,-1,0.970130582980346
3,1,126,21,23,1.60209500300698,2,1.70342780498322,-1,0.015861070016399
3,1,127,11,13,3.75452917802613,2,0.627566351031419,-1,0.0776033709989861
3,1,128,4,4,1.10200269403867,3,0.229757105989847,1,1.26233377796598
3,1,129,22,21,9.69517275504768,2,1.07924365799408,1,5.75738700799411
3,1,130,16,24,2.66897911002161,2,1.08836480200989,-1,0.017674601986073
3,1,131,29,29,3.52099950000411,1,3.46097702998668,1,1.13657126500038
3,1,132,10,11,1.43447752698557,3,0.549730420985725,-1,1.21854613895994
3,1,133,15,16,1.50194044498494,2,0.539887796971016,-1,0.440347864001524
3,1,134,22,23,14.8660121980356,1,1.07175436301623,-1,0.245245270023588
3,1,135,29,21,3.68786955199903,3,0.991075875004753,-1,0.618385426001623
3,1,136,29,19,3.4872536949697,3,2.18791497801431,-1,0.821209069050383
3,1,137,11,11,1.9348541580257,3,0.620134903991129,-1,0.597959286009427
3,1,138,29,18,2.92027118999977,2,0.808550083020236,-1,0.266980447981041
3,1,139,11,15,3.83766339998692,2,0.762497643008828,-1,1.34986659302376
3,1,140,29,23,2.36963741900399,2,0.650583671056665,-1,1.71465118898777
3,1,141,16,25,3.31943283404689,2,0.998201135953423,1,4.31264869601
3,1,142,29,25,1.81857633101754,2,3.63082472997485,1,0.316741457034368
3,1,143,11,9,1.15101302997209,3,0.662200121965725,-1,1.38123141799588
3,1,144,22,25,4.42133585398551,2,0.863148359989282,1,0.39060895901639
3,1,145,8,9,2.06807597499574,2,2.48707995197037,-1,0.266657857981045
3,1,146,8,12,2.28656929702265,3,0.908090123964939,-1,7.14662319101626
3,1,147,4,5,1.20139548898442,3,1.26837063004496,1,0.370115427998826
3,1,148,16,15,3.46972962998552,2,0.824675192998257,-1,0.747766989981756
3,1,149,19,22,3.67069715599064,2,2.05896136700176,1,0.600841614999808
3,1,150,20,21,2.38611379597569,2,0.75401991198305,-1,0.934874923026655
3,1,151,16,17,3.73666008998407,3,2.79006716504227,-1,1.03065644198796
3,1,152,10,12,2.4520569369779,2,2.05457958503393,-1,1.66070919303456
3,1,153,22,20,4.4045558529906,2,1.07740293099778,1,1.74860698997509
3,1,154,25,24,3.42001185799018,2,0.782754013955127,-1,0.0964463269920088
3,1,155,16,28,4.13784973404836,2,0.731353149982169,1,0.831891017965972
3,1,156,5,6,1.11848896299489,3,0.858473122993018,-1,2.86586306698155
3,1,157,11,14,2.5856559620006,3,0.534652144997381,-1,0.26648347498849
3,1,158,25,24,4.72144711797591,2,2.40651241800515,-1,0.623291423020419
3,1,159,15,23,3.68769554101164,2,0.96288895001635,1,1.56652699701954
3,1,160,12,13,2.51978696201695,3,1.86671286000637,-1,8.88145203504246
3,1,161,6,7,1.56776746799005,3,1.85098588000983,-1,1.83396136696683
3,1,162,10,13,4.15525430702837,2,0.432605534966569,-1,3.03200175799429
3,1,163,26,21,4.95518866198836,1,0.206329319975339,-1,0.760320000001229
3,1,164,9,13,3.41957328503486,2,0.786805245967116,-1,0.63707824901212
3,1,165,28,999,4.75574929104187,1,9.01663770095911,-1,1.96062113001244
3,1,166,8,7,1.7514235189883,3,2.23345255898312,-1,0.312171362980735
3,1,167,11,9,5.27329047198873,2,0.575452888966538,-1,0.02739525801735
3,1,168,15,15,1.86934385000495,3,1.06987392995507,-1,0.292583580012433
3,1,169,4,4,0.900827859994024,3,0.399596659990493,-1,1.44951630901778
3,1,170,11,15,3.13653326203348,3,0.878145485010464,-1,0.796738730976358
3,1,171,22,21,3.47081547300331,2,6.68075955001405,1,0.43325930001447
3,1,172,15,14,3.28716491197702,2,0.723548587004188,-1,0.456781688029878
3,1,173,24,21,1.43498269101838,3,0.425180346006528,-1,0.723041213001125
3,1,174,7,9,3.25405600201339,3,0.365288623026572,-1,0.51303909503622
3,1,175,11,11,1.95248975703726,3,0.483496885048226,1,0.0268856550101191
3,1,176,4,4,2.52087153500179,3,0.192805812985171,1,6.91729742701864
3,1,177,9,9,1.2007633530302,3,0.467886433005333,-1,0.434927171969321
3,1,178,7,8,1.53415317100007,3,0.943574164994061,-1,0.0177788650034927
3,1,179,27,24,2.97064202401089,2,1.13055639097001,-1,0.0165540050365962
3,1,180,7,8,2.87058914697263,3,1.04729502904229,-1,0.678429264982697
3,1,181,17,25,2.83543158997782,2,1.34835540596396,-1,0.0328281270340085
3,1,182,14,16,1.53555935597979,2,2.22853344300529,-1,2.06042022904148
3,1,183,4,4,2.31973033602117,3,0.210967970022466,-1,1.0454541160143
3,1,184,7,8,1.50127009500284,3,0.855655056016985,-1,0.846031173015945
3,1,185,22,23,2.18656922300579,3,1.44362262997311,-1,0.924132763990201
3,1,186,7,9,2.83650287700584,3,0.388387385988608,-1,0.688221101008821
3,1,187,27,16,8.90921072999481,2,1.24064201896545,-1,0.721264405990951
3,1,188,9,12,3.43812410597457,3,2.95892464596545,-1,0.598305915016681
3,1,189,16,18,1.58468855597312,3,0.470106831053272,-1,0.0788957769982517
3,1,190,16,19,2.66878827300388,2,1.51235911500407,1,1.05442407605005
3,1,191,4,4,1.11759765696479,3,0.17712724203011,-1,1.46764293097658
3,1,192,14,16,3.4204179829685,3,1.06913245498436,-1,0.276237612997647
3,1,193,20,25,1.43431615503505,3,2.37135805300204,-1,1.4296560260118
3,1,194,22,26,4.37159735301975,2,1.04513877397403,-1,0.174125837977044
3,1,195,26,25,4.15436060598586,2,0.636306885979138,-1,0.229540397995152
3,1,196,7,11,1.75191185699077,3,0.644922674051486,1,0.46265104203485
3,1,197,6,6,1.3516267130035,3,0.603140868013725,1,2.0527609300334
3,1,198,22,16,4.68857742002001,2,0.67524329101434,-1,0.674902897968423
3,1,199,16,21,2.16850363701815,3,0.488482128013857,-1,2.63119186402764
3,1,200,7,7,3.92189703200711,3,0.794812979002018,-1,0.0166256690281443
3,1,201,9,9,1.88569730904419,3,0.71222011995269,-1,0.66192752198549
3,1,202,11,13,2.93662868399406,3,0.61384404101409,-1,0.470700730977114
3,1,203,9,13,1.65135606500553,3,1.11048346699681,-1,0.972115116019268
3,1,204,20,22,1.95175046299119,3,0.704215255973395,-1,0.748751705978066
3,1,205,12,15,1.73591736500384,3,0.473268122994341,-1,0.752486206009053
3,1,206,25,28,2.70338166499278,2,1.16079204698326,1,0.812761897977907
3,1,207,11,12,1.43547730502905,3,0.507626278034877,-1,0.0581561109866016
3,1,208,14,24,3.92163114401046,2,1.4756301069865,1,1.99475066101877
3,1,209,21,32,1.31882549100555,2,1.09076945798006,-1,0.529229560983367
3,1,210,7,8,1.36788942798739,3,0.486978356027976,-1,0.262182856036816
3,1,211,22,16,1.81922347296495,2,0.734970277990215,-1,0.0176559569663368
3,1,212,27,35,2.33556492096977,2,0.813605219998863,1,0.734448870993219
3,1,213,8,9,1.71825463499408,2,0.563471033994574,-1,0.01668671797961
3,1,214,14,16,3.40394524502335,3,0.473772560013458,-1,0.0568982409895398
3,1,215,12,17,2.68568263697671,2,0.730804193008225,1,0.471981591021176
3,1,216,29,30,5.00625898502767,2,0.21861986501608,1,2.30928793596104
3,1,217,7,9,2.97020167997107,2,1.73009384202305,-1,0.517230511002708
3,1,218,9,12,1.66911265801173,2,1.02695661201142,-1,0.0176597269601189
3,1,219,23,26,2.45247679302702,2,0.721584315004293,1,0.0174304880201817
3,1,220,15,16,4.07101754500763,3,1.87860759301111,1,1.32398564298637
3,1,221,19,35,3.21983888698742,3,0.370768022025004,1,0.941454213985708
3,1,222,7,9,2.1524095099885,3,0.669803494994994,-1,0.516028338985052
3,1,223,7,8,2.77007004001644,3,0.339741266972851,1,0.888787309988402
3,1,224,9,11,2.58722826500889,3,0.757394637970719,1,0.736631056002807
3,1,225,6,6,1.23487115500029,3,0.677305938967038,-1,1.22866964997957
3,1,226,7,7,3.13701255997876,3,0.296803030010778,-1,0.295824439032003
3,1,227,7,10,2.3687830530107,2,1.02862070896663,-1,0.621250274998602
3,1,228,11,15,1.96814398799324,2,1.22541057202034,1,0.0168417629902251
3,1,229,13,16,1.3346786829643,2,1.41480241401587,-1,2.64804329094477
3,1,230,12,12,1.26808169501601,2,1.80279047100339,1,0.690532985026948
3,1,231,11,16,2.27017228800105,2,0.204139431007206,-1,0.017607859976124
3,1,232,7,7,2.80231645301683,2,0.736680743051693,-1,0.016351357975509
3,1,233,29,33,4.93944346799981,2,2.87744653201662,1,1.56160014303168
3,1,234,17,19,3.63765879999846,2,0.310876742994878,1,0.0175826270133257
3,1,235,23,21,4.37136324500898,1,1.44894862198271,-1,2.12828106002416
3,1,236,28,34,2.88593217998277,1,1.36239999195095,-1,2.78965047403472
3,1,237,16,21,6.05716242996277,2,1.13478283595759,-1,0.450929037993774
3,1,238,4,4,1.11871877999511,3,0.286836489976849,-1,2.22236289602006
3,1,239,16,15,4.25516286899801,3,0.936050047981553,-1,1.42883595795138
3,1,240,29,22,2.00258695997763,3,0.531041117967106,-1,0.192071733996272
4,1,1,11,9,4.33813590195496,2,4.99670189991593,-1,4.6853799080709
4,1,2,22,16,4.94001147500239,2,3.49227800499648,1,5.43257631990127
4,1,3,11,11,5.29000979999546,2,3.21793573303148,-1,9.03915530105587
4,1,4,8,7,4.37203330709599,3,2.11001905798912,-1,1.92251172999386
4,1,5,11,11,6.40708526596427,3,2.08688252500724,1,1.45195881801192
4,1,6,6,5,4.05441510409582,3,1.93270412099082,-1,3.32853197900113
4,1,7,13,16,4.80524906807113,2,2.37301890307572,1,12.3833954120055
4,1,8,14,28,4.35503208497539,1,1.61361960996874,-1,1.94112556800246
4,1,9,25,34,2.78663124993909,1,1.48963364795782,1,5.91948922595475
4,1,10,24,14,12.5979069069726,2,1.93010398803744,-1,1.15766665094998
4,1,11,14,10,8.37499195500277,1,1.17393318901304,-1,1.45686697005294
4,1,12,24,17,7.27416341693606,2,2.01862679503392,1,1.45866654405836
4,1,13,11,12,2.70180710498244,2,1.4962573449593,-1,5.66200781799853
4,1,14,22,20,4.02137157798279,2,1.28008111694362,1,0.957949787960388
4,1,15,4,4,2.03624761803076,3,2.65278741496149,-1,3.91480179596692
4,1,16,11,14,12.847223012941,1,3.15520093101077,-1,1.76546879194211
4,1,17,7,7,5.87342254398391,3,1.9594741180772,-1,3.77783169003669
4,1,18,29,37,5.25641000596806,2,2.9472195309354,-1,2.22137083101552
4,1,19,29,40,6.39102959202137,1,8.70093811105471,-1,1.42677535291295
4,1,20,7,8,1.85184069199022,3,1.40261022199411,-1,0.860521605005488
4,1,21,29,24,5.62202650599647,3,1.34836355294101,-1,1.20872048300225
4,1,22,11,11,4.60568142100237,3,1.09378061001189,1,1.21979407209437
4,1,23,11,10,5.27266650495585,3,1.39202209794894,-1,0.753734329948202
4,1,24,16,21,4.28819433797617,2,1.07346205110662,-1,1.8327594040893
4,1,25,7,7,3.9873232699465,3,1.54968931304757,-1,1.2326289099874
4,1,26,7,7,2.73583927599248,3,2.92917655897327,-1,1.93170592992101
4,1,27,4,4,1.30219509091694,3,1.22760987305082,-1,7.29055001202505
4,1,28,7,7,6.72536715702154,3,4.01424548693467,-1,1.11686539207585
4,1,29,23,20,9.04369918303564,2,1.15533705695998,-1,0.957098584971391
4,1,30,11,12,6.07343055505771,2,10.8197261479218,-1,1.68319598003291
4,1,31,20,46,2.93629890994634,1,1.21504812093917,1,1.47149348095991
4,1,32,15,18,2.83599534304813,2,1.12397255096585,1,0.760647493996657
4,1,33,15,16,10.5625587129034,1,1.18850290495902,1,1.24726359604392
4,1,34,29,35,2.93664487905335,2,1.15437916689552,1,1.773655505036
4,1,35,20,26,2.91989094496239,1,4.61311616306193,1,2.59243709594011
4,1,36,17,16,9.92798810999375,2,1.80800299497787,-1,1.1781205580337
4,1,37,16,17,3.53797047003172,1,1.25829898798838,1,2.80240135500208
4,1,38,11,14,10.1948372269981,1,1.33237388194539,-1,0.400872295955196
4,1,39,7,7,3.97082535293885,3,1.45429480099119,-1,0.478264433098957
4,1,40,4,4,3.70503965008538,3,4.95514941797592,-1,0.922305683023296
4,1,41,7,7,3.48774911498185,3,7.30816980800591,-1,0.834207827923819
4,1,42,22,30,4.78870301996358,3,0.981736861052923,-1,1.22440385702066
4,1,43,11,13,5.52361668203957,3,1.29844010691158,1,0.753057615016587
4,1,44,9,9,3.25333011511248,3,1.3977496259613,-1,0.357544934959151
4,1,45,11,15,5.90723386500031,2,1.46033004799392,1,1.37898093601689
4,1,46,22,24,3.38763698004186,1,1.3902282549534,1,0.927509275032207
4,1,47,14,19,5.23946896800771,2,2.07593015301973,1,3.3301325510256
4,1,48,21,15,8.27628896199167,1,1.0710068999324,-1,0.398005587980151
4,1,49,29,40,3.0698328979779,2,12.3508493630216,-1,0.799550942960195
4,1,50,27,25,3.00288032903336,1,6.13136366498657,-1,0.426338879973628
4,1,51,12,13,7.39072404801846,3,7.19654021400493,-1,1.10404231806751
4,1,52,14,18,3.62085894704796,2,1.20604931400158,-1,0.688141801045276
4,1,53,8,10,6.15678087901324,2,1.57466239808127,1,0.425418916973285
4,1,54,9,8,7.34036103799008,2,1.49097276793327,-1,0.448946216027252
4,1,55,10,10,4.25447186804377,2,1.49176669504959,1,0.346818784950301
4,1,56,22,29,3.13713990489487,1,1.26134630502202,1,1.86037304007914
4,1,57,17,25,8.15895940491464,1,1.10688809293788,1,0.59201132808812
4,1,58,19,19,9.41014519496821,1,1.3521904880181,-1,0.388114440022036
4,1,59,7,7,4.37266509607434,3,1.35446800594218,-1,0.238002705038525
4,1,60,22,26,4.1709904599702,2,6.82308715698309,-1,1.54616602789611
4,1,61,22,45,2.41935625008773,1,1.21157507202588,-1,0.933628755039535
4,1,62,26,45,3.27070020290557,1,1.10572048800532,-1,0.520257181022316
4,1,63,29,50,8.35932354698889,1,1.023147465894,1,0.272193026030436
4,1,64,16,16,6.090581770055,1,8.47654154803604,-1,0.972330227028579
4,1,65,16,999,18.7707806209801,1,4.28033590095583,-1,2.66767923801672
4,1,66,21,18,10.7119536650134,1,1.3704099310562,-1,0.555453762994148
4,1,67,27,40,4.07093259203248,1,1.94857842498459,-1,0.367630915017799
4,1,68,16,50,6.49053312500473,1,2.06931494199671,1,0.306481074076146
4,1,69,10,13,4.98865448997822,1,16.835994782974,-1,1.79531631397549
4,1,70,26,29,4.37125180102885,1,1.79407857800834,1,1.65099425800145
4,1,71,21,45,2.56931814493146,1,1.01260757294949,1,0.102122280979529
4,1,72,22,46,2.25260550202802,1,1.39684273896273,1,0.0691931489855051
4,1,73,9,7,3.78780874796212,3,3.97579063696321,-1,1.62265797902364
4,1,74,19,51,8.85898695793003,1,1.97102034604177,1,0.196934128063731
4,1,75,22,35,8.09186999499798,1,1.67267071397509,1,1.711094837985
4,1,76,25,40,3.12011524499394,1,1.36339434690308,1,0.0928733960026875
4,1,77,21,40,2.41914712509606,1,1.40758668596391,-1,0.425488370005041
4,1,78,29,50,17.1518996979576,1,1.29904438706581,1,0.0890291329706088
4,1,79,27,32,5.80633264395874,1,1.59652458503842,-1,1.07041946798563
4,1,80,14,17,4.72123430797365,2,1.36392540996894,1,1.52657093002927
4,1,81,29,30,6.07372961996589,1,2.3104722610442,-1,1.56086795800366
4,1,82,11,15,5.32355581002776,3,0.984546099905856,-1,0.931420119013637
4,1,83,6,6,2.63674740190618,3,1.50201497098897,-1,0.499106928007677
4,1,84,16,28,9.22757425589953,2,1.15027813508641,-1,0.857711005024612
4,1,85,18,28,2.58591868996155,1,1.03480446501635,-1,0.619118207949214
4,1,86,15,25,8.97665809001774,1,1.49707685306203,-1,0.471320626093075
4,1,87,16,18,2.83651966205798,2,0.710413323016837,-1,1.43664551794063
4,1,88,19,24,6.15738306590356,1,1.52227415808011,1,1.43906371505
4,1,89,7,7,4.05425491707865,3,1.46328507002909,-1,0.293822346022353
4,1,90,15,20,8.15899810299743,2,0.854670042055659,-1,0.919444685918279
4,1,91,20,30,4.88911988493055,1,12.2159584979527,-1,1.30074233503547
4,1,92,4,0,3.45435827004258,1,1.97200109600089,-1,0.597392642986961
4,1,93,17,24,22.007846995024,1,1.45204451004975,1,0.459393940051086
4,1,94,14,14,8.72575447091367,1,1.23256649903487,-1,0.0813229460036382
4,1,95,12,26,2.06887783796992,1,2.72173623798881,1,0.677323685027659
4,1,96,14,28,12.6973159450572,1,1.41874671797268,-1,1.39516375295352
4,1,97,7,8,4.07118445797823,3,2.01956601196434,1,1.72995585796889
4,1,98,7,8,4.10490790300537,3,1.38853458000813,1,0.103141954983585
4,1,99,22,16,3.28671414405107,2,1.09694507508539,1,1.02976581605617
4,1,100,11,14,4.00491633499041,2,1.00051570998039,1,0.177595966961235
4,1,101,4,4,1.43555733503308,3,4.64718701306265,-1,2.00289094704203
4,1,102,25,40,2.98700529104099,1,2.08077150408644,1,0.101434616022743
4,1,103,29,60,1.56860603694804,1,1.0574607020244,1,0.0729524911148474
4,1,104,26,31,2.90302581794094,1,1.35906926810276,1,1.20972028805409
4,1,105,4,4,2.05247421003878,3,2.10866006498691,-1,5.00881815503817
4,1,106,17,25,6.55715201701969,1,2.06065201596357,-1,0.674780844012275
4,1,107,16,17,5.10557415697258,1,2.09616848209407,1,2.06962044793181
4,1,108,22,19,4.98829890403431,2,2.3170967180049,1,1.28813291806728
4,1,109,8,13,3.72080720006488,2,2.40026601403952,-1,1.23277268896345
4,1,110,28,45,10.5948436219478,1,1.18154867796693,1,0.254201984032989
4,1,111,28,45,2.13580681011081,2,0.907955026021227,-1,0.513652426074259
4,1,112,11,10,4.18763037293684,2,2.43648799799848,-1,1.36978643503971
4,1,113,7,9,3.12028780195396,2,3.28828627499752,-1,0.237047687987797
4,1,114,16,0,2.75243377394509,1,2.32350716507062,-1,0.0312916151015088
4,1,115,12,14,3.72164943290409,1,2.52593929402065,-1,0.616914893034846
4,1,116,11,17,3.3204271850409,1,5.56559410702903,-1,1.70790496992413
4,1,117,10,8,4.05460011493415,3,1.56424416601658,-1,1.07949949998874
4,1,118,16,25,2.26912575494498,3,6.24655384500511,1,0.736401417059824
4,1,119,8,11,4.73883936495986,3,1.02105571096763,-1,0.0166797250276431
4,1,120,13,23,6.45705216494389,2,4.41975111095235,-1,1.30469265999272
4,1,121,16,36,3.02069131506141,1,1.31971802201588,-1,0.637297160923481
4,1,122,11,18,2.2193375719944,2,1.28154595091473,-1,0.526640642085113
4,1,123,10,19,11.763012283016,1,0.864000266999938,-1,1.22283158998471
4,1,124,4,4,4.73904425499495,3,2.01535600505304,-1,2.3348905290477
4,1,125,25,30,4.30514323094394,1,1.16418190998957,1,0.182649160036817
4,1,126,11,17,6.27335192298051,2,1.47537803801242,-1,0.473325717961416
4,1,127,10,12,4.13774642790668,2,1.41248763597105,-1,0.477036136086099
4,1,128,8,13,9.79428367898799,1,5.47202034306247,1,1.74566416302696
4,1,129,19,38,5.52274887496606,1,1.46390565601178,1,0.15861008700449
4,1,130,6,7,3.12100396095775,3,1.47626526607201,-1,0.0355149959214032
4,1,131,24,13,11.7964635950048,1,1.41001439595129,-1,1.35516504000407
4,1,132,4,4,2.3367671900196,3,0.867221871041693,-1,1.30379906506278
4,1,133,28,32,4.27138770197053,1,1.41454381193034,-1,0.133851503022015
4,1,134,7,8,5.03881619498134,3,1.21713371796068,-1,0.0576166200917214
4,1,135,12,10,3.50341779505834,3,1.29050913604442,1,0.911366236046888
4,1,136,6,8,5.42254579497967,3,1.03985643596388,1,1.55949489097111
4,1,137,13,12,4.02085406007245,3,1.0923893309664,-1,0.0164480949752033
4,1,138,4,4,2.01996231998783,3,3.00044304504991,-1,1.49618036695756
4,1,139,16,29,3.988492280012,1,1.60053476400208,1,5.31381485599559
4,1,140,7,13,17.3688980079023,1,1.1884569999529,-1,0.454269496025518
4,1,141,12,0,12.6312490199925,1,1.58478716597892,-1,0.065600099042058
4,1,142,17,30,6.52322391001508,1,1.15677649900317,-1,0.35114538797643
4,1,143,26,26,2.52009749005083,1,1.27069012995344,-1,0.30915142793674
4,1,144,23,45,1.71802382392343,1,0.831350772990845,1,0.303790260921232
4,1,145,13,16,1.98571750801057,2,4.19390460592695,-1,1.0874619060196
4,1,146,18,28,3.03717520495411,1,0.847445423016325,-1,0.0792738669551909
4,1,147,16,24,2.50279646995477,1,1.44790981302503,-1,1.65301837597508
4,1,148,29,24,5.20646213495638,2,2.00233967800159,-1,0.753564610029571
4,1,149,12,16,4.10341500805225,2,1.14133345999289,-1,0.482832498033531
4,1,150,16,15,2.66945288702846,2,1.69161118997727,-1,1.16123881400563
4,1,151,4,4,2.03533720294945,3,1.40422149095684,1,2.86122593504842
4,1,152,4,8,5.97352569992654,2,1.59045345394406,-1,3.03993884497322
4,1,153,22,36,4.08766843995545,2,2.70339603896718,1,1.57858465507161
4,1,154,15,26,5.20541054499336,3,3.04347789101303,-1,1.2581046409905
4,1,155,28,29,14.266471604933,1,1.28525266994257,1,0.346002144971862
4,1,156,25,47,3.13755557104014,1,1.47850656800438,-1,1.06907445797697
4,1,157,4,7,3.33733498805668,3,1.2792131989263,1,0.309295875951648
4,1,158,22,17,2.75328218191862,3,1.58968492504209,-1,1.90400744101498
4,1,159,7,9,3.50436318502761,3,1.12095912301447,1,0.0847876199986786
4,1,160,6,32,13.3488294950221,1,1.17855703807436,-1,1.57401049695909
4,1,161,13,56,6.34055857500061,1,1.01627571310382,1,0.138107613078319
4,1,162,15,18,2.80290422192775,2,1.61903912492562,-1,1.12889386108145
4,1,163,26,27,10.2775663699722,2,1.4991967510432,-1,0.863321171025746
4,1,164,7,13,11.5792710300302,1,1.17150648299139,1,0.686748849926516
4,1,165,16,999,4.3881405700231,1,1.25217303296085,-1,0.723238058038987
4,1,166,7,0,13.8818019899772,1,1.61951989203226,-1,0.0597039019921795
4,1,167,14,4,5.92312170995865,2,6.57590746099595,-1,1.66936268296558
4,1,168,6,9,4.15412679198198,3,1.33399229100905,-1,0.185145220952109
4,1,169,5,14,4.02096508000977,3,2.08807534095831,1,1.27603819000069
4,1,170,22,45,6.24044978700113,1,1.36889523395803,1,0.907884881016798
4,1,171,22,56,2.10188812995329,1,0.904748421045952,1,0.182625920977443
4,1,172,12,24,3.68784895504359,1,1.4572869380936,-1,1.00034820998553
4,1,173,22,56,1.83578265702818,1,0.985443316050805,1,0.155682211974636
4,1,174,4,4,1.23414819291793,3,4.15214672498405,-1,0.712609468027949
4,1,175,9,16,5.67140955291688,3,1.29982641001698,1,1.08095447998494
4,1,176,29,36,3.42044999497011,1,1.57245377195068,-1,0.902686682995409
4,1,177,9,14,2.13523931696545,3,1.29833999101538,-1,0.36699969007168
4,1,178,28,29,2.21915319596883,1,1.25370750296861,1,0.244495769962668
4,1,179,24,29,2.25197338499129,1,1.04159491998143,-1,0.354442797950469
4,1,180,22,18,4.45455999299884,1,1.15931954002008,-1,0.434553884901106
4,1,181,11,17,2.08524696005043,1,1.03663512703497,-1,0.0616495880531147
4,1,182,9,18,3.43729918007739,2,2.64659953792579,1,1.14010551699903
4,1,183,9,19,8.96076416806318,1,0.99336438102182,-1,0.0175868199439719
4,1,184,7,19,4.55545476509724,1,0.824453430017456,1,0.0175023599294946
4,1,185,16,40,1.3511924140621,1,0.58530037489254,1,0.03608104493469
4,1,186,7,9,2.71958345000166,3,0.810123853036202,-1,1.16508478508331
4,1,187,7,9,2.91979443305172,3,1.59782651101705,-1,0.757439544075169
4,1,188,7,7,3.70398983301129,3,1.72389074298553,-1,0.496297826990485
4,1,189,29,60,4.28766491205897,1,1.12666592595633,1,0.507848763023503
4,1,190,10,10,4.33810150995851,3,1.10904406197369,-1,0.0164353800937533
4,1,191,4,4,1.55138919304591,3,1.78319590701722,-1,2.41688048292417
4,1,192,21,29,5.47280190500896,1,1.90438348194584,-1,1.98920778091997
4,1,193,7,12,5.18914296198636,2,1.64693368494045,-1,0.69257402094081
4,1,194,7,8,3.35418146790471,3,1.03155514504761,-1,0.310726223979145
4,1,195,28,31,5.7064156299457,2,1.84903985296842,-1,0.839366520056501
4,1,196,6,5,3.73764254897833,3,1.24484442803077,-1,0.147875583963469
4,1,197,16,16,3.60458955389913,1,0.956321785924956,-1,0.176424292963929
4,1,198,28,20,2.70300103304908,1,4.1602714410983,1,1.72042899101507
4,1,199,29,25,7.24122376402374,1,1.08296001201961,-1,0.304665850009769
4,1,200,29,34,4.47139426204376,2,1.29855896590743,1,1.85564308799803
4,1,201,29,35,4.70530328003224,2,1.13922808901407,1,1.43963814002927
4,1,202,29,40,4.53921621199697,1,0.955863634007983,1,0.70416958106216
4,1,203,7,8,3.78772954095621,3,1.11165818304289,-1,0.125690863002092
4,1,204,10,11,7.42484660702758,3,1.32283273094799,1,0.496071486035362
4,1,205,11,14,8.14253954205196,1,0.912564237019978,-1,0.0542810279875994
4,1,206,25,19,7.14123260998167,1,1.00615980802104,-1,1.25425365509
4,1,207,5,5,1.58452345104888,3,1.70993406092748,-1,0.30680860101711
4,1,208,4,4,2.10229077003896,3,0.722549424972385,-1,0.272479971055873
4,1,209,29,27,2.96981563000008,2,1.39542360894848,1,1.46049151406623
4,1,210,20,18,2.6021637719823,2,1.73733037197962,-1,0.620221527060494
4,1,211,9,17,5.205704152002,1,0.96130256599281,-1,0.812106030993164
4,1,212,29,45,2.03654974710662,1,0.950861686025746,1,1.01942172797862
4,1,213,4,4,1.41818075499032,3,1.20488634810317,-1,1.18951353395823
4,1,214,15,28,4.20533513999544,1,1.15988526807632,-1,4.18658347404562
4,1,215,11,36,10.2776772640646,2,4.66035924199969,1,2.01676443603355
4,1,216,27,41,3.10427265800536,1,1.35656361491419,1,0.990828309091739
4,1,217,20,36,3.17066514701582,1,1.14365721202921,1,1.21154153801035
4,1,218,8,24,10.5440366349649,1,0.624381737085059,-1,0.361904827994294
4,1,219,5,5,2.2025281030219,3,1.13744722690899,-1,0.309904576046392
4,1,220,22,35,4.85587582597509,1,1.07434197200928,-1,0.809308986063115
4,1,221,16,0,6.95759082504082,1,1.32097534404602,-1,0.357354830019176
4,1,222,29,24,2.45233748003375,1,2.75850882998202,1,0.78381299902685
4,1,223,18,30,2.71908998501021,1,1.48798074899241,1,0.405533066019416
4,1,224,11,18,2.7200046699727,3,0.962700776057318,1,0.854707787046209
4,1,225,7,9,2.11875230306759,3,1.18083681794815,-1,0.629905511043034
4,1,226,20,40,9.22668273292948,1,0.918261315091513,1,0.203192153014243
4,1,227,9,13,5.25536947301589,3,1.07778491091449,1,1.50900354306214
4,1,228,11,14,1.78547846304718,1,1.00278346601408,-1,0.69187583506573
4,1,229,7,10,4.05371258000378,3,1.37664987694006,-1,1.44332582701463
4,1,230,27,40,3.40319166192785,1,1.15582477103453,-1,0.751756669953465
4,1,231,16,21,4.58920893806498,2,1.10891126096249,1,2.78537982597481
4,1,232,4,4,1.96911144000478,3,0.798625737079419,-1,0.368387092021294
4,1,233,22,25,14.8163897009799,1,1.09460630000103,-1,0.157168484991416
4,1,234,11,17,2.35188451001886,2,1.60424530599266,-1,0.725754810031503
4,1,235,7,12,2.13590703206137,3,0.972041469998658,1,0.391010442981496
4,1,236,5,5,1.0839153630659,3,1.00306070502847,-1,0.572951389942318
4,1,237,6,7,2.28588694299106,3,0.788032302982174,-1,0.470320158987306
4,1,238,8,10,4.53826048504561,3,1.02307379990816,1,0.407761618960649
4,1,239,12,13,6.47409694001544,1,1.8191284169443,-1,0.899689335026778
4,1,240,19,28,7.7078294219682,1,0.73248608794529,1,0.264384339912795
5,1,1,22,20,4.05486514407676,2,2.9373476000037,-1,2.43632171000354
5,1,2,9,7,2.73713043495081,2,2.93282405810896,-1,4.34340298699681
5,1,3,4,4,2.5362904650392,3,1.8471750250319,-1,2.15922796796076
5,1,4,12,16,3.45390529499855,2,1.73128898802679,-1,1.45462177402806
5,1,5,15,15,4.37159384193365,1,1.40709580795374,-1,1.99183166096918
5,1,6,16,18,4.00443081802223,1,1.15296496800147,-1,0.894132571062073
5,1,7,11,15,3.82100970495958,2,1.46453505591489,-1,1.23266747104935
5,1,8,16,10,2.46940251707565,3,3.93925908801612,1,2.52481879806146
5,1,9,19,16,3.58725896000396,2,1.61204171890859,-1,1.68396774597932
5,1,10,13,13,1.88549698702991,2,2.15673896798398,-1,2.48618246498518
5,1,11,4,4,1.43500674201641,3,1.13598400703631,-1,0.781526137026958
5,1,12,29,20,3.80423710204195,3,1.48453123599757,-1,1.72271930007264
5,1,13,11,12,4.68860611494165,2,0.883965732064098,-1,1.09095918689854
5,1,14,4,4,1.15127860696521,3,1.09632208594121,-1,0.559087334899232
5,1,15,27,15,2.6029194239527,3,1.74379762297031,-1,0.508134569972754
5,1,16,11,10,2.41942908195779,2,1.03964385599829,-1,0.504405366955325
5,1,17,7,7,1.90215175610501,2,4.36594692210201,1,1.1738990820013
5,1,18,16,17,2.21916072606109,2,1.20724749495275,1,1.39205448003486
5,1,19,25,22,2.1357305010315,2,1.36184384801891,1,1.03032049397007
5,1,20,5,4,1.45170398498885,3,0.945303282001987,-1,0.72608306305483
5,1,21,24,16,2.00226765195839,2,2.15630938799586,-1,0.439822054933757
5,1,22,16,15,1.70202020998113,2,1.67091308697127,-1,1.83855852496345
5,1,23,25,17,2.30261014506686,2,1.08819861500524,-1,0.734915715991519
5,1,24,26,23,2.03568000497762,2,1.53831475391053,-1,0.470900640939362
5,1,25,16,16,1.65192478499375,2,1.64963338105008,-1,1.93723819695879
5,1,26,11,12,1.98563002794981,2,1.48680112103466,-1,0.548541850992478
5,1,27,7,7,1.63523219001945,3,0.838392375968397,-1,1.16004160000011
5,1,28,22,16,4.17131498001982,2,3.27686420595273,-1,1.14542836498003
5,1,29,4,4,0.967821500031278,3,1.47700028400868,-1,3.32407586893532
5,1,30,11,11,1.85214252199512,3,1.00804919900838,-1,0.31493013096042
5,1,31,13,16,1.5017247950891,3,0.934723863960244,-1,1.06779183703475
5,1,32,7,8,1.21812550490722,3,0.438203069963492,-1,0.440254140063189
5,1,33,14,17,1.88551672699396,3,1.0676491400227,-1,0.747495664982125
5,1,34,15,17,1.2013570999261,3,1.82397952093743,1,0.40862352901604
5,1,35,11,17,2.98674467706587,3,0.910179408965632,-1,0.709126361063682
5,1,36,29,23,1.98558204097208,3,1.11975910805631,1,1.18150254501961
5,1,37,22,19,2.21916342596523,3,0.597503724973649,-1,0.432073040981777
5,1,38,10,9,1.48505411797669,3,0.908986900933087,-1,1.27475546300411
5,1,39,8,11,2.50280274997931,3,2.03864383499604,-1,0.700862730038352
5,1,40,7,8,1.83538571803365,3,0.408494352013804,-1,0.283776752068661
5,1,41,27,29,2.36935051507317,2,2.03844743501395,1,1.64496821002103
5,1,42,27,30,1.78538055997342,2,1.78171612799633,-1,1.01578658993822
5,1,43,14,12,1.60177747707348,2,1.22624244296458,-1,0.523146561929025
5,1,44,6,7,1.51840207504574,2,0.879856777959503,-1,1.74239194800612
5,1,45,8,8,1.40157825697679,2,1.01592271693517,-1,1.67285719094798
5,1,46,29,35,1.80207196692936,2,1.06830326502677,-1,0.890500786015764
5,1,47,7,10,1.63523316709325,3,1.40890291600954,1,0.562317145988345
5,1,48,22,16,1.73535206494853,2,0.766336495988071,-1,0.40231767098885
5,1,49,6,8,1.25150524196215,2,2.69030044006649,-1,0.775403968058527
5,1,50,24,20,1.81871397700161,2,0.993279233109206,-1,1.61242288805079
5,1,51,9,10,1.73534738493618,2,0.951023743022233,-1,0.962948561063968
5,1,52,6,8,1.76865105901379,3,0.763418709975667,-1,0.0797674040077254
5,1,53,7,7,1.58517554507125,3,1.50772235903423,-1,0.449243539012969
5,1,54,28,23,3.03677634510677,2,1.8933860299876,-1,0.834807056002319
5,1,55,10,7,1.78537964494899,2,1.53045787790325,-1,0.256177910021506
5,1,56,29,26,2.25253667600919,3,1.03598640300333,-1,0.212729791994207
5,1,57,21,20,1.61852335499134,2,0.853443059953861,-1,0.357329779071733
5,1,58,7,11,2.18581182498019,2,0.590468424023129,-1,0.0741717129712924
5,1,59,26,22,2.6863977269968,3,0.954629587009549,-1,0.662685408024117
5,1,60,14,13,1.6685486700153,3,2.01889255805872,-1,0.618155411910266
5,1,61,5,6,1.36820246605203,3,0.986889729974791,-1,0.982422164990567
5,1,62,7,6,1.08457991003525,3,0.943608713103458,-1,0.610690503031947
5,1,63,7,6,1.7519836970605,3,0.864282675902359,-1,1.94461768493056
5,1,64,5,5,1.5517471289495,3,1.59926865098532,-1,0.3189576609293
5,1,65,7,8,1.13465608493425,3,1.01883576903492,-1,2.29883742507081
5,1,66,12,16,2.21924017195124,3,1.35385961795691,1,1.04542957607191
5,1,67,11,16,1.36828527296893,3,1.16552467504516,-1,0.728754888987169
5,1,68,20,23,1.98555395600852,3,1.28005003102589,-1,0.261155004962347
5,1,69,21,30,2.15242760197725,2,1.08765876793768,-1,0.604876226978377
5,1,70,4,4,0.967787898029201,3,0.765591277973726,-1,0.312957521062344
5,1,71,16,30,1.31821786996443,2,1.45002430700697,1,0.457555539906025
5,1,72,7,7,2.23591185198165,3,0.863467002985999,-1,1.05512357491534
5,1,73,21,29,2.08557435299736,3,1.52686785801779,1,3.01905587501824
5,1,74,18,25,2.33596033498179,2,1.06965173908975,-1,0.949679753975943
5,1,75,29,28,2.5028518299805,2,0.861975608044304,1,1.19026173802558
5,1,76,9,13,1.83544238703325,3,1.12037845794111,-1,0.268430685973726
5,1,77,22,20,1.2680959639838,2,0.988022853038274,-1,0.84709627693519
5,1,78,15,15,2.28588536800817,3,0.900703046005219,-1,0.699638923979364
5,1,79,26,25,3.02006386092398,2,0.862868737080134,1,0.510759483091533
5,1,80,16,12,1.25146076700184,2,0.58568669995293,-1,1.22104182606563
5,1,81,29,25,2.31933162501082,3,0.968219757080078,-1,0.243741539074108
5,1,82,9,12,1.55176490999293,3,0.88349398795981,-1,0.418847615015693
5,1,83,11,11,2.16911028895993,3,1.09621860599145,-1,0.253976470907219
5,1,84,4,4,0.951130869914778,3,0.756050334894098,-1,0.382913061068393
5,1,85,24,20,4.05448596004862,2,0.663208186044358,-1,0.655410346924327
5,1,86,12,12,1.48502804804593,2,1.27023038000334,-1,0.287117191939615
5,1,87,25,21,4.03788199997507,2,3.81973511807155,-1,0.689205036964267
5,1,88,4,4,0.984458341030404,3,0.605779340025038,-1,0.296073846984655
5,1,89,4,4,1.06789837300312,3,0.978253577952273,-1,0.221886951010674
5,1,90,17,18,3.05340499302838,2,1.07483560300898,-1,0.337141050025821
5,1,91,16,16,2.48611658508889,2,0.817808905034326,-1,0.308289412991144
5,1,92,10,14,1.88539278600365,2,0.887751934002154,-1,0.869755708030425
5,1,93,7,9,1.46839768998325,2,0.846791762975045,1,0.303813604055904
5,1,94,17,15,1.13465685991105,2,0.985962809994817,-1,0.892237222986296
5,1,95,7,9,1.23478045500815,3,1.04749206698034,1,1.79988415993284
5,1,96,16,17,1.66860643494874,2,5.58424253994599,-1,0.477508357027546
5,1,97,6,7,1.36820399702992,3,0.75015280302614,1,0.866223067976534
5,1,98,29,28,3.27030923904385,3,1.14171559293754,-1,1.44288362108637
5,1,99,27,28,2.13577193696983,2,5.39879072702024,1,0.981254659942351
5,1,100,4,4,1.23479035694618,3,1.54735577304382,-1,0.295778510044329
5,1,101,24,22,2.15243764000479,2,0.867104760021903,-1,0.410635604988784
5,1,102,7,10,1.7686475290684,2,1.07005441293586,1,0.356178065063432
5,1,103,14,19,3.00342599500436,2,0.862271334975958,-1,0.846358223003335
5,1,104,16,19,2.05230829794891,2,0.365145019022748,-1,0.441478025051765
5,1,105,11,12,1.10130728501827,2,1.91359174996614,-1,1.41474608599674
5,1,106,22,18,2.08565132005606,2,0.759712464991026,-1,0.435266209999099
5,1,107,14,15,1.1845730029745,2,0.408785767969675,-1,0.282123940996826
5,1,108,22,20,2.76977064600214,2,0.529229157953523,-1,0.518873250926845
5,1,109,27,25,1.53508459602017,2,0.435184406931512,-1,0.508424550993368
5,1,110,25,20,1.26813199999742,2,0.544615690014325,-1,0.189067446044646
5,1,111,12,15,1.51836456696037,2,0.509182538022287,1,0.243242896976881
5,1,112,18,20,1.51843409205321,2,0.433358461013995,-1,0.723682394949719
5,1,113,29,26,3.18688874796499,2,0.451665882021189,-1,0.388353434973396
5,1,114,16,19,2.31932447198778,2,0.400031546014361,-1,0.505394272040576
5,1,115,29,18,3.10348840500228,1,0.867189932963811,1,2.59371424501296
5,1,116,8,9,1.4516465079505,3,1.17832185002044,1,1.87003028101753
5,1,117,20,23,2.31930810003541,2,1.0652250580024,1,0.624722070991993
5,1,118,22,25,1.28483366,2,0.863004814949818,1,0.271503422991373
5,1,119,14,25,1.21804993401747,2,0.331055539078079,1,0.401269716909155
5,1,120,11,18,1.8854886010522,2,0.436728896107525,1,0.246270657982677
5,1,121,11,12,1.16810170700774,1,1.13370617595501,-1,1.84231234702747
5,1,122,7,7,1.88553667499218,2,0.974869454046711,-1,1.17071952088736
5,1,123,11,12,1.31816606596112,2,0.802669781027362,1,0.101087965071201
5,1,124,14,17,1.48505317303352,2,0.586814594920725,1,0.566252668038942
5,1,125,28,25,1.26810378499795,2,1.22163617005572,-1,0.918775358004496
5,1,126,16,23,1.98557251109742,2,1.80744347709697,-1,0.639274806017056
5,1,127,6,8,1.20141252002213,2,1.29246459004935,-1,0.409234300022945
5,1,128,4,4,0.901088590035215,3,0.769764575059526,-1,0.301170842023566
5,1,129,22,35,2.86986344691832,2,1.1519015149679,1,0.323727303068154
5,1,130,7,10,1.63516605598852,2,0.729342693928629,1,0.110352801973931
5,1,131,9,10,1.36822772095911,2,0.96843223599717,1,0.236018751980737
5,1,132,11,10,2.03562063002028,2,0.383554753032513,1,0.345501738018356
5,1,133,7,8,2.15241238300223,3,0.853822731995024,-1,0.429090304998681
5,1,134,7,9,2.26922189095058,3,0.833256102981977,1,0.826669948990457
5,1,135,9,9,2.20251358905807,3,1.37420929200016,1,0.257727127056569
5,1,136,18,17,1.71865562000312,2,0.94707160803955,-1,0.558464882080443
5,1,137,22,19,1.68529532500543,2,0.841814112965949,-1,0.722998045035638
5,1,138,13,12,1.20143379503861,2,1.2636668010382,1,0.799275376019068
5,1,139,10,8,1.75202661799267,2,0.54485270800069,1,0.606740387971513
5,1,140,7,8,2.38602323806845,3,1.14185360306874,-1,0.78605055809021
5,1,141,29,28,2.76983692299109,2,1.14233914401848,-1,1.28173186001368
5,1,142,16,16,1.31816196010914,2,0.815273117972538,-1,0.433561482001096
5,1,143,29,25,3.33705807093065,2,1.75177724205423,-1,0.689747849013656
5,1,144,11,12,0.834257984999567,2,1.74156538408715,-1,0.393465504981577
5,1,145,29,30,2.13573209999595,2,1.10668280092068,-1,0.976855164975859
5,1,146,7,9,1.16805209207814,2,0.409933859016746,1,0.252254723920487
5,1,147,8,9,1.78535103995819,2,0.42499981506262,-1,0.850245476001874
5,1,148,10,12,1.00113041594159,2,1.23690741695464,-1,0.254399763070978
5,1,149,4,4,1.00118528294843,3,0.76673390599899,-1,0.242363860015757
5,1,150,23,19,2.90330340503715,2,0.654236752074212,1,0.478870740043931
5,1,151,22,20,1.90214013098739,2,0.971649586921558,1,0.327106422046199
5,1,152,16,20,1.6017991049448,2,0.829081450006925,1,0.414416882907972
5,1,153,28,30,1.05106990004424,3,1.35333883902058,1,1.45318723004311
5,1,154,22,20,1.48508156707976,2,0.372015269007534,1,0.247102400055155
5,1,155,7,8,1.16798840498086,2,1.49421048501972,-1,0.260856723994948
5,1,156,13,16,2.10241902002599,2,0.84222998493351,1,0.795067755039781
5,1,157,17,19,2.30259052105248,2,0.979717520065606,1,0.438947404036298
5,1,158,28,28,1.785411232966,2,0.907955687027425,1,1.20200190204196
5,1,159,7,8,1.20145029504783,3,1.62148935499135,-1,3.32652079605032
5,1,160,7,8,0.984458647901192,3,1.92599941499066,-1,0.72893088508863
5,1,161,28,28,2.06899228098337,3,0.918064692988992,1,0.715491447015665
5,1,162,29,34,2.25253420707304,2,1.31111925502773,1,1.56317402201239
5,1,163,13,14,2.10244162497111,3,1.14609104499687,1,1.47876870096661
5,1,164,22,23,1.9355566650629,2,1.75657964998391,-1,0.358489299076609
5,1,165,5,5,1.08463778509758,3,0.771195995970629,-1,0.311046608025208
5,1,166,20,20,1.3515551550081,3,0.73799820500426,-1,0.583867239998654
5,1,167,6,8,1.63521293504164,3,0.488995832041837,1,1.19215303193778
5,1,168,19,18,2.10244682303164,2,4.82327906507999,-1,1.96415630797856
5,1,169,29,35,2.26920994801912,2,0.798040590016171,1,0.310488091083243
5,1,170,22,30,1.81869220593944,2,1.06223333999515,1,0.582522935932502
5,1,171,12,16,2.96995913004503,2,0.750737015972845,1,0.218888925970532
5,1,172,15,17,2.03562479105312,2,0.374405153095722,1,0.338292578002438
5,1,173,23,26,2.36930954596028,2,0.966765964985825,-1,0.234898846014403
5,1,174,12,15,1.15135025803465,2,0.458465570001863,-1,0.299789673066698
5,1,175,25,20,1.31818457902409,2,0.36923695798032,-1,0.148951166076586
5,1,176,29,30,1.45165599591564,2,0.491541891009547,1,0.70612029300537
5,1,177,22,30,1.4516908969963,2,0.330088344984688,-1,0.279291991959326
5,1,178,10,15,1.25141387991607,2,0.659692897112109,1,0.636418476002291
5,1,179,4,4,0.767558046034537,3,0.826280487002805,-1,0.539684366900474
5,1,180,7,8,1.2181111020036,2,1.18552856601309,-1,0.307871738099493
5,1,181,15,18,1.26809360098559,2,0.995142160099931,-1,0.484998287982307
5,1,182,7,15,1.81870440510102,2,0.87963496602606,1,0.134465637966059
5,1,183,22,25,1.16802815697156,2,1.00591302395333,1,0.64027614495717
5,1,184,9,12,0.934400022029877,2,1.32393083302304,-1,0.409407828934491
5,1,185,22,19,1.60186200798489,2,0.409541436005384,1,0.13986718992237
5,1,186,25,28,1.53503313101828,2,0.33901377802249,1,0.0723987449891865
5,1,187,11,15,1.16800120600965,2,0.317612088983878,1,0.490825293934904
5,1,188,8,8,1.18481568794232,3,1.80979339999612,1,0.747732804971747
5,1,189,19,18,1.96894264197908,3,0.989804825047031,-1,1.62314442009665
5,1,190,29,30,1.6351715780329,2,0.827508477959782,1,0.2693695880007
5,1,191,11,15,2.88657170603983,3,0.697182095958851,-1,1.87114918604493
5,1,192,4,4,0.767649423098192,3,0.656453865929507,-1,0.313277218025178
5,1,193,20,18,1.85209217504598,2,0.458727448014542,1,1.77944253897294
5,1,194,11,16,1.48505390505306,2,0.434476239955984,1,0.220307115931064
5,1,195,29,35,1.41823639895301,2,2.23211060895119,1,1.78355617506895
5,1,196,4,4,0.884401491959579,3,0.482360143098049,-1,0.30489549099002
5,1,197,8,15,1.16807500994764,2,0.99855265498627,-1,1.15984363108873
5,1,198,19,18,2.25254572497215,2,0.438101371983066,1,0.590790910995565
5,1,199,16,15,1.05118472105823,2,0.595881785033271,-1,0.0386404490564018
5,1,200,10,15,3.00340471696109,2,1.04889092093799,1,2.08037126297131
5,1,201,16,15,2.10234918806236,3,0.849031222984195,-1,0.913385713007301
5,1,202,11,13,1.6352370249806,2,0.450875511043705,-1,1.22641059302259
5,1,203,21,26,1.65191764803603,2,0.368322683032602,1,0.228273682994768
5,1,204,15,15,1.23472114501055,2,0.422775660059415,1,0.384565892047249
5,1,205,4,4,0.784317562938668,3,0.289267129963264,-1,0.312817565980367
5,1,206,15,18,1.58520616800524,2,2.49504882399924,-1,0.73263165098615
5,1,207,19,22,1.35153770109173,2,0.751219908008352,1,0.179744879016653
5,1,208,8,9,4.55514057690743,2,0.760701833060011,-1,0.228642649017274
5,1,209,4,4,0.834347935044207,3,0.279282030998729,-1,0.0171014900552109
5,1,210,14,20,1.60185623692814,2,0.481443102005869,-1,0.280758757027797
5,1,211,16,16,1.55179313500412,3,1.1756967259571,-1,0.329867481952533
5,1,212,6,5,1.51836396497674,3,0.9877696079202,-1,0.74213604000397
5,1,213,7,9,2.71969765797257,3,1.03702068096027,1,1.15703887993004
5,1,214,12,17,2.36931903799996,3,1.11015173001215,1,0.644235546002164
5,1,215,21,28,1.63513808895368,2,1.41591330000665,1,0.9441723349737
5,1,216,11,13,2.83652606490068,2,1.68914864701219,-1,1.13499322196003
5,1,217,17,17,2.55283355002757,2,1.69507330306806,1,0.869527754955925
5,1,218,22,26,1.68524404102936,3,1.15268188004848,-1,0.380064954981208
5,1,219,6,8,1.15136765199713,3,0.81453126994893,-1,0.320930900983512
5,1,220,28,22,1.05118016293272,3,0.790566837997176,-1,0.32050775596872
5,1,221,20,22,0.867638850933872,3,0.788681523990817,-1,0.247452592011541
5,1,222,9,12,1.35158311808482,3,0.634783249930479,-1,0.172627245076001
5,1,223,11,12,0.967764712986536,3,0.90968852606602,-1,0.1637830180116
5,1,224,11,16,1.53516943205614,2,0.633813807973638,1,0.761576437973417
5,1,225,11,13,1.48498659499455,3,1.13963312993292,-1,0.296547660953365
5,1,226,29,30,1.26810904603917,3,1.2246222558897,-1,0.473201629938558
5,1,227,16,20,2.1190506600542,2,0.544483599951491,1,0.37302706995979
5,1,228,11,18,1.66856081702281,3,0.651231126044877,-1,0.242833098978736
5,1,229,29,30,2.25257129804231,3,0.839872281067073,-1,0.176357385935262
5,1,230,20,18,1.13460718397982,3,0.592287424951792,-1,0.0913741489639506
5,1,231,16,19,1.40157944301609,3,0.800013694097288,-1,0.0268928649602458
5,1,232,22,20,1.03453816100955,2,0.696095081046224,-1,0.727046990999952
5,1,233,28,12,1.03455643600319,3,0.721374333021231,-1,0.0619432240491733
5,1,234,4,4,1.41849263291806,3,0.530082289944403,-1,0.287393087986857
5,1,235,12,16,1.50179760006722,2,0.614391705021262,-1,0.56012209597975
5,1,236,7,6,1.06790582102258,3,0.836478237994015,-1,0.261688295984641
5,1,237,17,25,1.73528424999677,2,1.84764399100095,-1,0.550408471026458
5,1,238,9,10,1.31817334995139,3,0.593771785032004,-1,0.219985949923284
5,1,239,26,20,1.06787586596329,3,0.610384414088912,-1,0.0849346709437668
5,1,240,26,26,1.29921677906532,2,0.934151194058359,-1,0.60262276395224
6,1,1,7,6,3.01949937688187,3,2.86552233900875,-1,4.34558128612116
6,1,2,24,15,4.77342392597347,2,2.37412733514793,-1,2.10682137310505
6,1,3,4,4,1.55208996287547,3,1.22086758189835,-1,4.62923972308636
6,1,4,25,21,4.70576142496429,2,2.32447561295703,-1,2.93650490301661
6,1,5,11,9,3.48728011990897,2,2.05066570988856,-1,2.64202811499126
6,1,6,29,25,4.8056845148094,2,2.1754124420695,-1,1.59432189515792
6,1,7,28,24,4.30493572005071,1,1.93369000591338,-1,1.84045525803231
6,1,8,16,19,4.12147161806934,1,1.76353140897118,-1,2.05508672003634
6,1,9,11,11,2.81977876205929,3,1.42247103201225,-1,3.63059859187342
6,1,10,24,14,4.12134548393078,2,1.76546284998767,1,1.23048881813884
6,1,11,7,8,1.80222077807412,3,1.71414659288712,1,2.46376511012204
6,1,12,15,16,3.77096331189387,2,2.0875805770047,-1,2.91777222999372
6,1,13,4,4,1.03455907595344,3,1.55828636605293,1,2.14672982110642
6,1,14,21,24,2.97008083690889,1,1.3912693830207,1,1.92100262991153
6,1,15,7,7,2.03567164787091,3,0.924338478129357,-1,2.17679094080813
6,1,16,19,17,4.17133936705068,2,3.67482667299919,-1,2.01596158510074
6,1,17,18,27,3.77100049494766,1,1.35942462692037,1,1.4181681771297
6,1,18,7,7,1.78555248002522,2,1.82989802211523,-1,1.31050206907094
6,1,19,15,16,2.1358183149714,2,2.58630544994958,-1,2.0362578460481
6,1,20,22,20,7.32486168015748,2,1.5245463270694,1,0.576132110087201
6,1,21,28,32,4.58859184291214,1,2.91630797297694,1,1.49501528800465
6,1,22,11,9,3.25360931013711,2,1.32097891811281,-1,0.853258189046755
6,1,23,22,29,2.33590353489853,1,1.18571209604852,1,1.69912945805117
6,1,24,28,35,4.22131212195382,1,1.27175395889208,1,2.151399058057
6,1,25,21,21,2.78643816290423,2,1.27300028293394,-1,0.519463920965791
6,1,26,22,16,2.96998220612295,2,0.998987794853747,-1,1.61532251001336
6,1,27,22,24,3.27036831295118,2,1.14551772014238,-1,2.52643345296383
6,1,28,10,10,2.80309653398581,2,3.46175819286145,-1,1.56299656187184
6,1,29,17,17,3.32048886199482,2,1.02038130513392,1,0.60623610811308
6,1,30,26,29,3.37043547793292,2,2.34253526804969,1,1.39356824592687
6,1,31,29,24,4.0545115810819,2,1.71550724608824,1,1.29431807203218
6,1,32,29,18,3.53717718482949,1,1.22191517590545,-1,0.0875602159649134
6,1,33,5,5,1.1013397029601,3,1.23499737284146,1,1.61888743611053
6,1,34,19,17,2.38606712920591,2,1.1910415859893,-1,1.24079604493454
6,1,35,7,6,3.08694184804335,3,1.01887339004315,-1,0.643603871110827
6,1,36,17,15,5.02224020194262,2,1.22176115610637,-1,0.462870615068823
6,1,37,16,17,4.40496992715634,2,0.955987628083676,-1,0.640146131860092
6,1,38,12,10,2.88657123199664,2,1.05715042515658,-1,0.849927541101351
6,1,39,4,4,0.934481256175786,3,1.27546377805993,-1,1.45814098999836
6,1,40,14,20,4.6718674050644,2,0.909767636097968,1,0.276387985097244
6,1,41,25,28,5.25587047496811,2,1.040805648081,1,0.145352626917884
6,1,42,4,4,0.88458012486808,3,1.65875177807175,1,1.20055710012093
6,1,43,26,27,3.47057666792534,2,2.54192328290083,-1,0.975797530030832
6,1,44,20,14,3.13682026509196,2,1.28367015300319,-1,0.873686585109681
6,1,45,11,12,3.48725156509317,2,1.05114501318894,-1,1.24961031787097
6,1,46,11,10,2.93666496593505,2,0.93337604100816,1,0.258887875126675
6,1,47,22,18,4.72197842714377,2,0.88676020805724,-1,0.0925620158668607
6,1,48,27,20,2.1024331159424,2,1.12728024111129,-1,1.33299369318411
6,1,49,4,4,1.03447136795148,3,1.07523140800186,-1,0.499059885973111
6,1,50,9,7,2.00221813912503,3,1.95634072599933,1,1.09579558996484
6,1,51,24,19,1.75192895997316,2,1.17032352206297,-1,0.470060835825279
6,1,52,26,25,4.18792205699719,2,1.01424608496018,-1,0.294907937059179
6,1,53,22,16,2.68642100784928,2,0.960711905034259,1,0.605767515022308
6,1,54,11,9,2.10241900803521,3,3.05136408680119,-1,0.903609732864425
6,1,55,9,9,2.11919540213421,2,1.34445900400169,1,1.01210521790199
6,1,56,22,16,4.25480193505064,2,1.18955270806327,-1,0.34453906910494
6,1,57,29,29,4.42151942802593,1,1.5340187670663,1,1.48121265601367
6,1,58,11,11,4.12117405189201,2,1.13535845605657,-1,0.994505051989108
6,1,59,12,11,2.43609988316894,2,0.954202152788639,1,0.701461355900392
6,1,60,29,22,2.93659481289797,2,1.85299368808046,1,1.02025899593718
6,1,61,8,9,2.13590180687606,2,1.25956928310916,-1,1.50590652110986
6,1,62,24,21,3.92122647305951,2,1.06260281079449,-1,0.879655413096771
6,1,63,12,13,3.15356578491628,3,1.66512490296736,-1,0.920309995068237
6,1,64,4,4,1.03454367001541,3,1.04698238498531,1,0.238840958103538
6,1,65,11,9,3.75418083718978,2,2.67774858302437,-1,1.0513841197826
6,1,66,5,5,1.30137290502898,3,1.31184995290823,-1,0.37192903785035
6,1,67,12,15,3.70403136801906,2,1.16308459010907,-1,0.575959653127939
6,1,68,9,9,2.80318970303051,2,2.76309591601603,-1,2.94934268505313
6,1,69,11,11,2.81984060700051,3,2.68354489817284,-1,3.19314445299096
6,1,70,29,29,1.98563581798226,1,1.13596188486554,1,1.65861128107645
6,1,71,16,20,3.03671671194024,1,1.92765607009642,1,0.804248780012131
6,1,72,12,13,3.62062058504671,2,1.2893001830671,1,0.168032580986619
6,1,73,22,16,1.71861018915661,2,1.17213109997101,-1,0.0168537748977542
6,1,74,28,18,5.03888652496971,2,1.42828483902849,-1,0.30840047611855
6,1,75,13,16,3.72075347811915,2,1.10236513195559,-1,0.0849025920033455
6,1,76,19,19,5.18912540003657,2,1.05918338196352,-1,0.897636085050181
6,1,77,7,7,2.30264190793969,3,1.99841700517572,1,0.887097531929612
6,1,78,29,24,6.89095064997673,2,2.83069867012091,-1,3.09404252888635
6,1,79,23,18,2.61966277193278,2,1.09633152396418,-1,0.446570153813809
6,1,80,23,17,1.95224859309383,2,1.21599804610014,1,0.480671652127057
6,1,81,15,12,2.55281772301532,2,0.926854850025848,-1,0.75469559780322
6,1,82,29,25,4.68853850406595,2,1.43409906304441,1,0.656436594901606
6,1,83,6,6,1.78535505197942,3,1.15594079205766,1,1.19004897703417
6,1,84,6,6,2.35265645687468,3,1.15727379219607,1,0.808669599005952
6,1,85,16,13,2.68632471607998,3,1.27949385507964,-1,1.5012738420628
6,1,86,22,22,2.93659850815311,2,1.11174026294611,1,0.613135092891753
6,1,87,8,8,2.20252276491374,2,0.981623572995886,-1,0.399556939955801
6,1,88,29,26,2.10242097498849,2,1.51243556616828,-1,1.17305743088946
6,1,89,7,7,1.93546275002882,3,1.0425322749652,-1,1.47571434802376
6,1,90,25,19,4.73901914199814,2,1.50802284781821,1,1.6248478689231
6,1,91,8,8,1.98562007304281,3,0.986117372056469,-1,1.00399283994921
6,1,92,14,15,3.4539131349884,2,0.980256404960528,-1,0.0168546650093049
6,1,93,16,15,3.83766863006167,2,1.40879416000098,-1,0.86532991589047
6,1,94,21,20,1.90215423493646,1,1.65550414402969,-1,0.40711712394841
6,1,95,27,25,1.90220264205709,2,2.93900431296788,-1,0.516715581994504
6,1,96,9,9,2.50282788998447,3,1.09872201411054,-1,1.5051147651393
6,1,97,29,26,3.85431855893694,1,2.44755071401596,1,0.949265065137297
6,1,98,22,13,2.5029815598391,2,2.42375078215264,-1,0.392112110042945
6,1,99,4,4,1.03465346107259,3,1.96197414607741,-1,0.613276012940332
6,1,100,11,13,3.92103884508833,3,2.01334344106726,1,1.15865155518986
6,1,101,11,11,3.05331344599836,3,0.884527591057122,-1,1.07355874008499
6,1,102,14,14,4.88871750701219,3,3.01565806404687,1,0.303838049992919
6,1,103,22,20,2.85315617290325,2,2.50021158112213,-1,0.384354106150568
6,1,104,22,16,2.48612844501622,1,2.19788403506391,-1,0.341987626859918
6,1,105,6,6,1.35152748203836,3,0.725301075028256,-1,0.12361172796227
6,1,106,13,15,3.28708700486459,3,1.95054640597664,1,0.865500594023615
6,1,107,12,12,4.68859342695214,3,1.38324943580665,1,0.321726585039869
6,1,108,8,7,1.60192071204074,3,0.949924980988726,-1,0.649359848815948
6,1,109,17,11,3.87104979692958,3,1.99078297894448,-1,0.705026552081108
6,1,110,10,8,4.73921360983513,3,1.11263286997564,-1,0.591067727189511
6,1,111,7,7,1.68527863407508,3,1.06274417508394,-1,0.405736190034077
6,1,112,11,10,2.78642673790455,2,1.8314237720333,1,0.702699373010546
6,1,113,25,20,2.5695195349399,2,1.42856088699773,1,0.197846818948165
6,1,114,7,6,2.18577960389666,3,0.822714983019978,-1,0.352694580098614
6,1,115,11,15,5.30586146516725,2,1.44308778387494,1,0.323391061043367
6,1,116,7,7,1.76869234489277,3,1.23597208503634,1,0.203432745998725
6,1,117,20,13,2.38605389511213,2,2.15510404692031,-1,1.35687359701842
6,1,118,7,6,1.90212346310727,3,1.00282143079676,1,0.47574099781923
6,1,119,7,7,1.75186618999578,3,0.920917923096567,1,0.0845794829074293
6,1,120,10,11,3.97110979212448,3,0.806977352825925,1,0.22605478297919
6,1,121,4,4,1.4850083629135,3,1.00556725217029,-1,0.431289001135156
6,1,122,4,4,1.46837158314884,3,1.00360684306361,-1,0.668362556025386
6,1,123,7,7,2.03566591697745,3,0.994817145168781,-1,0.444392645033076
6,1,124,11,11,2.75306118908338,3,1.31969299097545,-1,0.427446961868554
6,1,125,4,4,1.06792539707385,3,1.03222110401839,-1,0.783241086173803
6,1,126,7,7,2.13583102985285,3,1.02550236298703,-1,1.04162534116767
6,1,127,16,17,5.48944365791976,2,1.21297602704726,-1,1.26162187498994
6,1,128,29,27,3.62069946317933,1,1.47691678605042,1,1.64390731789172
6,1,129,16,16,3.02012095507234,2,0.982330375118181,-1,0.377398556098342
6,1,130,20,19,2.85322628216818,2,0.891668156022206,-1,0.152971758972853
6,1,131,27,20,4.43827225104906,2,1.21803212002851,1,0.715729301096871
6,1,132,11,12,3.60409868485294,2,2.60928594018333,-1,1.71431024302728
6,1,133,29,24,3.48720831889659,2,1.29111909796484,1,0.0645143480505794
6,1,134,20,17,2.06904220511205,2,1.20090785110369,-1,0.777202958008274
6,1,135,21,15,2.41937449504621,2,1.11545853991993,-1,0.648482976015657
6,1,136,4,4,0.967760701896623,3,1.47413211106323,-1,0.120495263952762
6,1,137,7,7,1.45169604197145,3,1.4973443900235,1,0.237978185992688
6,1,138,29,21,2.90328648290597,2,2.48445119685493,1,1.38600069493987
6,1,139,9,9,2.45275103487074,3,2.52022224315442,1,0.596794412005693
6,1,140,6,6,2.1524103609845,3,1.04500644910149,-1,0.620659767882898
6,1,141,25,20,2.91990343783982,2,0.969163466012105,1,0.268748495029286
6,1,142,16,17,2.91997822001576,2,1.01209632214159,1,0.909461555071175
6,1,143,27,25,2.31924759317189,1,0.982827483909205,1,0.272385315038264
6,1,144,7,7,1.45174031704664,3,0.928186135133728,-1,0.476098445942625
6,1,145,13,12,3.53725293697789,2,1.10283585521393,-1,0.0680959499441087
6,1,146,29,25,2.81980407517403,1,0.902218041010201,1,0.107818685937673
6,1,147,22,15,1.85213883989491,2,1.77867556083947,-1,0.748394080903381
6,1,148,11,13,3.20355902705342,2,1.29416363313794,1,0.707043624017388
6,1,149,7,7,3.30375557998195,3,1.43105767900124,-1,0.280371987028047
6,1,150,10,10,3.58742672903463,3,1.67731426493265,1,1.81208527996205
6,1,151,17,13,3.93775061797351,2,1.81348123587668,-1,0.964713395806029
6,1,152,7,7,1.68520958907902,3,1.30093610915355,-1,0.521820367081091
6,1,153,8,8,1.90213278704323,3,1.87816651491448,1,1.42760110786185
6,1,154,6,6,1.76870186720043,3,1.47098495904356,-1,0.661585466936231
6,1,155,29,18,2.71972787613049,2,0.964680412085727,1,0.695159640861675
6,1,156,11,15,3.42048082291149,2,0.854395909933373,1,0.502698747906834
6,1,157,14,10,2.45275936485268,1,1.64404161786661,1,3.59630373609252
6,1,158,10,10,2.76977525302209,1,2.22616597288288,-1,1.22677000705153
6,1,159,5,5,1.58535284711979,3,0.922134352847934,1,0.182568999938667
6,1,160,16,20,4.83872031094506,1,1.22614823793992,1,0.0167826800607145
6,1,161,8,8,2.0857412579935,3,0.833961539901793,-1,1.39525722991675
6,1,162,7,7,2.15238062199205,3,0.829950290964916,1,0.143308643018827
6,1,163,29,27,2.6029195478186,1,1.29566958080977,1,0.140977861825377
6,1,164,4,4,0.917701422935352,3,1.05574591783807,-1,0.454726580064744
6,1,165,25,19,5.25588592491113,3,1.12910241703503,-1,1.02926108101383
6,1,166,29,20,2.63630185695365,2,1.17006695480086,-1,0.781597938155755
6,1,167,18,17,2.1357882078737,2,1.42976465704851,-1,0.492974461987615
6,1,168,7,7,1.8353871749714,3,0.653538696002215,-1,0.0771697808522731
6,1,169,15,15,3.47052747406997,2,1.04272246989422,1,0.130482804961503
6,1,170,14,16,3.37048136489466,1,1.30948275886476,1,0.0169619650114328
6,1,171,11,9,4.13828219799325,3,1.3325534730684,-1,0.863305806880817
6,1,172,9,8,2.43622908601537,3,0.654322120128199,-1,0.894123368198052
6,1,173,16,12,2.91998859704472,3,2.25873027509078,-1,1.13659638492391
6,1,174,4,4,0.96779000503011,3,1.16054903995246,-1,0.220623194938526
6,1,175,21,20,2.38603113382123,2,2.06966571789235,1,1.58684284985065
6,1,176,7,7,1.81871334509924,3,1.54318964807317,1,0.955545060103759
6,1,177,20,14,4.40484691294841,2,3.32542065205052,1,1.11347326799296
6,1,178,14,16,4.13793153106235,2,1.49390583089553,-1,0.39456347306259
6,1,179,16,17,4.43832819280215,2,1.16678130091168,-1,0.224405033048242
6,1,180,15,14,3.43719516810961,2,0.953493642155081,-1,0.0168781750835478
6,1,181,16,20,2.15242176805623,2,0.897357261972502,1,0.440852943109348
6,1,182,15,16,4.15467958990484,2,0.915066767949611,-1,0.160137813072652
6,1,183,16,18,4.53842444787733,2,0.909680553013459,1,0.0509015049319714
6,1,184,16,13,3.72084274492227,2,1.20632337988354,-1,0.111384171061218
6,1,185,7,7,2.06898209103383,3,0.583535152021796,1,0.579064342891797
6,1,186,12,14,3.43715794989839,2,0.94651317410171,1,0.551860391162336
6,1,187,22,30,5.27250105491839,1,0.616207945160568,1,0.152485937112942
6,1,188,11,10,2.76979898707941,2,0.939418687019497,-1,0.184153730981052
6,1,189,18,19,2.06906265509315,2,0.979295102879405,-1,0.764745463849977
6,1,190,16,15,4.30486169690266,1,1.56224597105756,-1,0.206020860932767
6,1,191,19,18,3.15358837298118,1,2.59956182097085,1,0.0558835798874497
6,1,192,9,8,2.35267036710866,3,0.46288905502297,-1,0.447382537880912
6,1,193,9,8,2.31936937198043,3,0.645477380836383,-1,0.429635812994093
6,1,194,17,10,5.77306147990748,1,0.416628509061411,-1,0.0181654209736735
6,1,195,4,4,1.10123285301961,3,1.51626609009691,-1,0.583795169834048
6,1,196,7,7,3.32032248494215,3,0.676141266012564,-1,0.339761745883152
6,1,197,10,10,2.70297661004588,2,1.37241493491456,-1,0.398334085941315
6,1,198,15,15,2.76979551510885,2,1.63347457302734,-1,0.217962163966149
6,1,199,5,5,0.984438027022406,3,0.427462205989286,1,0.229974821908399
6,1,200,8,8,2.3526909078937,3,1.00317898788489,1,1.07586531713605
6,1,201,11,11,3.30369745683856,3,0.893930008169264,-1,0.373221484944224
6,1,202,22,20,1.73527928884141,2,0.967096382984892,-1,0.208842891035601
6,1,203,6,6,1.28486165497452,3,0.758124354993924,-1,0.161294636083767
6,1,204,27,25,1.65180103015155,2,1.39652800909244,1,1.83122659707442
6,1,205,13,16,2.63634577509947,2,1.06321745505556,1,0.567003624979407
6,1,206,7,7,1.718593231868,3,0.296176970005035,-1,0.336300169816241
6,1,207,7,7,1.90214912011288,3,1.34617464104667,-1,0.0614843110088259
6,1,208,28,28,3.38716053985991,1,0.425641115056351,1,0.41098146000877
6,1,209,4,4,1.20135061303154,3,1.07213894394226,-1,0.095704291947186
6,1,210,29,29,4.68860151991248,2,1.5078344149515,-1,1.51325622480363
6,1,211,6,6,3.57067320798524,3,0.364109709160402,-1,0.175769787048921
6,1,212,14,13,2.05237693502568,2,3.70965638104826,-1,0.479898848105222
6,1,213,6,6,1.70198429003358,3,1.39529285999015,-1,0.550015222048387
6,1,214,7,7,1.81872958596796,3,1.05966494418681,-1,0.323334801010787
6,1,215,26,16,1.78541303006932,2,0.924265970941633,-1,0.464292272925377
6,1,216,10,10,3.50391353503801,3,0.31184131000191,-1,0.101972040021792
6,1,217,28,20,1.60179611807689,1,1.01034137513489,-1,0.189116197871044
6,1,218,11,10,3.32037447299808,1,0.964399492833763,-1,0.0169499299954623
6,1,219,16,15,2.20252615981735,1,1.09026119392365,1,1.06513698399067
6,1,220,22,20,4.82202663784847,1,1.08007682603784,1,0.0169360698200762
6,1,221,4,4,0.901045643026009,3,0.554584904108196,-1,0.478138091042638
6,1,222,14,16,3.3704965650104,2,1.98805886111222,-1,0.381439947988838
6,1,223,19,20,3.47050914284773,1,0.667953577823937,1,0.227688455954194
6,1,224,11,10,2.18576959497295,3,0.283041626913473,-1,0.395071420120075
6,1,225,11,10,2.11903586518019,3,0.731548100011423,-1,0.327074920060113
6,1,226,28,17,4.20474397693761,2,0.862192515050992,-1,0.0169599330984056
6,1,227,22,21,2.76974472799338,2,3.04327574698254,1,0.922537530073896
6,1,228,12,11,3.87100851093419,3,0.936275240965188,1,0.948166715912521
6,1,229,13,13,3.971122139832,2,1.27387897088192,1,0.776382475160062
6,1,230,16,15,3.58736783382483,2,0.871408025966957,-1,0.463339899899438
6,1,231,20,19,2.10242930497043,1,2.02100909990259,1,0.787652923027053
6,1,232,26,25,1.73530111601576,2,1.58085941919126,1,0.656023657880723
6,1,233,16,15,3.72088215500116,2,0.852303580846637,1,0.0169251249171793
6,1,234,22,16,4.0211970419623,2,0.636058127973229,1,0.596948600839823
6,1,235,9,10,2.41937302798033,3,0.605754731921479,-1,0.112362619955093
6,1,236,7,7,1.33506342791952,3,0.406557766953483,-1,0.201538757886738
6,1,237,16,12,3.30376025801525,2,0.916763059096411,-1,1.17900034808554
6,1,238,29,24,1.60178697598167,1,1.13515890995041,-1,0.219422835158184
6,1,239,4,4,0.984477262012661,3,0.402651812881231,-1,0.787426084978506
