Subj_idx,Block,Trial,Stimulus,Response,RT_dec,Confidence,RT_conf,ErrorDirectionJudgment,RT_directionJudgment
1,2,241,29,20,5.84007727704011,2,1.06938777101459,1,1.02019214100437
1,2,242,29,18,3.65452600998105,1,1.16574566601776,-1,0.82375000603497
1,2,243,22,16,4.52197602996603,2,1.4344506659545,-1,0.915261662972625
1,2,244,18,15,8.39293292199727,1,0.536798940971494,-1,0.420936093025375
1,2,245,18,13,3.67104179499438,2,0.584657675004564,-1,0.252152380009647
1,2,246,28,24,4.28753120498732,2,0.359688222000841,1,0.140675415983424
1,2,247,26,999,21.8912057359703,1,4.63754760002485,1,1.06696441897657
1,2,248,11,11,7.0074095549644,2,0.916229298047256,-1,0.690245751000475
1,2,249,10,12,4.57174013904296,3,1.0196055349661,1,0.325327483995352
1,2,250,29,20,2.20268361002672,2,0.979339786048513,-1,0.85377097298624
1,2,251,16,14,4.52170515002217,3,1.08199975499883,1,0.272296877985355
1,2,252,18,14,16.1339628699934,1,0.34609124599956,1,0.262353257043287
1,2,253,20,15,5.90724130498711,1,0.570169171027374,-1,0.293673591979314
1,2,254,26,16,15.2334080450237,1,0.629020605992991,-1,0.0160656780353747
1,2,255,12,11,6.27304654603358,3,0.860904875968117,1,1.75517352001043
1,2,256,4,4,1.16821818897733,3,0.636797789018601,-1,2.76504778797971
1,2,257,26,16,3.77048068598378,2,0.329602496989537,1,0.751297048991546
1,2,258,11,9,4.90604268701281,3,0.926288586982992,-1,2.39520131400786
1,2,259,5,5,1.36826071800897,3,0.855474082985893,-1,0.0229857029626146
1,2,260,25,19,15.7665889060008,2,0.813816478010267,-1,1.10341155802598
1,2,261,18,15,5.35624950198689,2,0.812924165977165,1,0.85250784503296
1,2,262,11,10,2.60313235002104,3,0.31262111797696,-1,0.22171272803098
1,2,263,7,6,3.7042031440069,3,0.77138313499745,-1,0.622942857036833
1,2,264,16,13,4.00504214101238,3,1.92407055594958,-1,0.318546770955436
1,2,265,19,16,5.4557614219957,2,0.95707271998981,-1,0.616888330026995
1,2,266,20,17,6.12352382997051,1,0.821544243954122,-1,1.13631260499824
1,2,267,18,16,8.15819039498456,3,1.13015813298989,1,0.23869890102651
1,2,268,4,4,1.20052643702365,3,0.727227048017085,-1,1.07063835900044
1,2,269,4,4,1.30175672500627,3,0.35726480698213,-1,0.0165717010386288
1,2,270,13,13,8.20931101200404,3,1.14926788501907,-1,0.327200900996104
1,2,271,29,20,5.53895503497915,1,0.137572488049045,1,0.261814884026535
1,2,272,6,7,3.20411512994906,3,0.882725730014499,-1,0.975434191990644
1,2,273,21,30,4.72186074004276,1,2.54973169101868,1,0.207961620006245
1,2,274,16,16,15.1826474129921,1,0.967667629010975,-1,1.35467504995177
1,2,275,15,10,3.83739756298019,2,0.442571070976555,-1,0.147075209009927
1,2,276,11,10,2.62012129003415,3,0.558104588009883,-1,0.346285353007261
1,2,277,16,999,5.53916160698282,2,7.66970412502997,-1,6.73420247901231
1,2,278,7,6,1.68475142703392,3,0.327790155017283,-1,0.0860946389730088
1,2,279,18,15,4.98880664003082,3,0.513978148985188,-1,0.0466041580075398
1,2,280,22,19,4.42094326100778,3,1.40504470298765,-1,0.0604542660294101
1,2,281,4,4,0.934240222966764,3,0.573331904015504,-1,0.0176661629811861
1,2,282,16,25,9.49433791497722,2,0.859626553021371,1,0.107510916015599
1,2,283,21,18,7.50838317000307,2,1.29323107399978,1,0.156579470960423
1,2,284,24,15,11.496239419037,1,0.803556255996227,1,1.45419694500742
1,2,285,21,16,8.12550950597506,1,1.0727347380016,-1,0.0561275699874386
1,2,286,14,16,3.95447430002969,2,0.256420743011404,1,0.153450577985495
1,2,287,27,18,2.57006128696958,1,0.364785988000222,-1,0.392512476013508
1,2,288,16,15,6.55767045298126,3,0.22504964703694,-1,0.203620226995554
1,2,289,7,7,2.85401845799061,3,0.727149752958212,1,1.36496309097856
1,2,290,11,10,2.97007807798218,3,0.991624928021338,-1,0.969817853998393
1,2,291,25,15,17.5524926630314,1,0.867340825032443,-1,0.707019502995536
1,2,292,22,12,2.40223363001132,1,0.794488344981801,-1,1.0357765959925
1,2,293,28,16,5.37231663003331,2,0.234583611949347,-1,0.290150985005312
1,2,294,13,12,3.02040123002371,3,0.424793313024566,-1,0.522231868992094
1,2,295,8,8,4.28769719600677,3,0.46120623301249,-1,0.0276537220343016
1,2,296,7,7,3.08719423098955,3,0.843104633968323,-1,1.69967063498916
1,2,297,16,15,6.35606491600629,2,6.52894786198158,-1,0.623933840019163
1,2,298,22,14,2.25236320099793,2,0.805454369983636,-1,0.0172709429753013
1,2,299,4,4,1.33512390003307,3,0.978665177011862,-1,0.869099900999572
1,2,300,6,5,2.75345018494409,3,0.406643548049033,-1,0.159044104977511
1,2,301,29,18,8.55924087302992,2,0.543736328952946,1,1.80445429397514
1,2,302,7,7,2.31958635000046,3,0.335690062027425,-1,0.156575107015669
1,2,303,22,14,3.15295903704828,2,1.19118334399536,-1,0.0254159810137935
1,2,304,22,15,7.02351078402717,2,0.692015396023635,-1,0.93727008998394
1,2,305,4,4,1.10123678704258,3,0.183296387956943,-1,0.35436055297032
1,2,306,20,16,6.22370731295086,2,0.684859164990485,1,0.972666264977306
1,2,307,29,21,1.86862654000288,2,1.4710956979543,-1,1.88427803601371
1,2,308,11,11,4.03698865300976,3,0.800699245010037,1,0.889966615999583
1,2,309,24,16,3.8717262520222,1,1.17906842997763,1,0.917110937996767
1,2,310,21,18,6.69020228995942,2,1.3702885399689,1,0.016488355002366
1,2,311,7,7,2.73640294797951,3,1.47255856002448,-1,0.367613246024121
1,2,312,22,17,5.63954433199251,2,8.67187388899038,-1,0.893169477989431
1,2,313,4,999,1.78613549500005,3,16.0425046000164,-1,0.202104518015403
1,2,314,19,999,2.48521284299204,1,2.56795795302605,-1,0.1135827099788
1,2,315,19,18,5.95700653496897,2,0.360858034051489,1,0.414337353024166
1,2,316,10,9,2.01974572200561,3,0.607181486033369,-1,0.016480624966789
1,2,317,16,14,3.75462473998778,2,0.5097185310442,-1,1.0922808010364
1,2,318,23,18,4.03846120001981,1,0.524018895055633,1,0.183718664979097
1,2,319,29,16,5.10579803702421,2,0.483628553978633,-1,0.131057418999262
1,2,320,12,10,6.24004343501292,3,0.320168092031963,-1,1.31682319298852
1,2,321,24,20,3.53696216800017,2,0.355544082995038,1,0.12034710100852
1,2,322,4,4,0.885193950962275,3,0.228728583955672,-1,0.0164083350100555
1,2,323,27,19,6.340601495991,3,0.771110904985107,-1,0.054810756992083
1,2,324,5,5,1.00050126499264,3,0.519914791046176,-1,0.0162288990104571
1,2,325,25,16,2.51996531296754,1,0.870563107018825,1,0.0175193780451082
1,2,326,23,20,7.82554978498956,2,1.69536046800204,1,0.0527696150238626
1,2,327,29,17,5.57247078500222,2,0.336679069965612,-1,0.189811429008842
1,2,328,17,13,4.47140467300778,2,0.427573120046873,-1,0.0543992270249873
1,2,329,25,15,24.5608661269653,1,0.339326574990992,-1,0.0412848359555937
1,2,330,29,16,11.6799758729758,1,0.13214188098209,-1,0.0413431779597886
1,2,331,14,15,7.00787809002213,1,0.550542091019452,-1,0.0996185049880296
1,2,332,14,12,4.8549416809692,2,0.316333204042166,-1,0.369590674003121
1,2,333,11,11,3.33641061402159,3,0.655496362014674,1,0.120141353050712
1,2,334,11,14,12.981320462015,2,0.765208716038615,1,0.0183112510130741
1,2,335,16,13,3.85343245195691,3,0.494236382015515,1,0.0221556059550494
1,2,336,8,9,3.45351297099842,3,0.507009272987489,1,0.0165517349960282
1,2,337,25,14,14.3665309029748,1,0.203859628003556,1,0.017091938003432
1,2,338,19,14,43.4981696429895,1,1.40733033203287,1,0.288649155001622
1,2,339,26,16,1.71908746799454,2,0.510086547001265,-1,0.029211510962341
1,2,340,17,15,4.20408272504574,2,0.34898431802867,1,0.0411083629587665
1,2,341,6,6,1.50125796004431,3,0.297485397022683,-1,0.551305825996678
1,2,342,27,20,1.46833288302878,2,0.331104554992635,-1,0.183259927027393
1,2,343,23,18,1.9520638549584,2,0.479743393952958,1,0.125476290006191
1,2,344,22,17,3.97054775303695,2,0.327585880993865,1,0.078197487979196
1,2,345,27,22,8.70932626299327,2,0.562211404962,1,0.0162433200166561
1,2,346,29,18,6.75736493896693,2,0.124003493052442,-1,0.257967156998347
1,2,347,16,11,3.92035686498275,3,0.287633803032804,-1,0.168078829010483
1,2,348,25,18,4.52082288498059,1,0.501002916018479,1,0.0992508849594742
1,2,349,8,8,3.73739197698887,3,0.299643850012217,1,0.0525844100047834
1,2,350,21,16,7.87478854000801,2,0.720572418009397,-1,0.0167364879744127
1,2,351,20,18,6.64130674500484,2,0.387304303003475,-1,0.016776517033577
1,2,352,17,13,5.005612413981,2,0.538423264981247,-1,0.016356505046133
1,2,353,17,15,8.09247614699416,1,0.770447383052669,-1,0.0162553479894996
1,2,354,29,18,5.15553664398612,1,0.92463854001835,-1,0.0165057950071059
1,2,355,17,13,4.08776499301894,3,0.568696292990353,-1,0.356979577976745
1,2,356,22,17,4.40510461002123,2,0.793267933011521,1,0.196048638026696
1,2,357,6,6,1.48498558299616,3,0.199894233024679,-1,0.0332039800123312
1,2,358,19,17,8.25830779300304,3,0.970133426017128,1,0.100055030023213
1,2,359,15,14,4.65515535097802,3,0.233574178011622,-1,0.337840472988319
1,2,360,11,12,4.0706979399547,3,0.325237187033053,-1,0.0838400879874825
1,2,361,23,18,2.28562945796875,2,0.434307807008736,-1,0.0166596519993618
1,2,362,5,5,1.06782473204657,3,0.425250215979759,-1,0.306554304959718
1,2,363,20,13,3.87062279303791,2,0.66236892802408,-1,0.0164439649670385
1,2,364,26,18,5.22270243999083,2,0.525941941014025,1,0.0436700739664957
1,2,365,11,10,3.43667371798074,3,0.513816949969623,-1,0.0640759730013087
1,2,366,9,10,2.61941148497863,3,0.415909411036409,-1,0.170658679970074
1,2,367,8,8,2.30252427200321,3,1.12799101794371,-1,0.813231704989448
1,2,368,29,19,2.4697685620049,2,0.812898071017116,1,0.109737820981536
1,2,369,18,16,6.2228490000125,3,0.673060911009088,-1,0.334985362016596
1,2,370,22,18,1.76790370303206,1,0.345556245010812,1,0.0452632179949433
1,2,371,8,8,2.26940908603137,3,0.269722791039385,-1,0.0171147129731253
1,2,372,11,11,1.91866180597572,2,0.688246685022023,-1,0.311124479980208
1,2,373,12,10,3.38711013202555,3,0.300977348000742,1,0.699089691974223
1,2,374,14,13,6.32356919703307,3,1.41254800604656,1,1.22195264097536
1,2,375,22,19,8.4592006119783,2,0.864266845048405,-1,0.335702011012472
1,2,376,23,18,2.437221175991,2,0.607792142953258,-1,0.250175943016075
1,2,377,22,16,1.51788384997053,2,0.544370876043104,-1,0.0174085820326582
1,2,378,19,13,1.75205696298508,2,0.658877248002682,1,0.162605452002026
1,2,379,23,15,2.13612643704982,2,0.350878335011657,-1,0.121595415985212
1,2,380,29,14,2.93675529200118,1,0.581802216009237,-1,0.0738943149917759
1,2,381,4,4,1.08500954502961,3,0.510132623021491,-1,0.0172910389956087
1,2,382,29,18,5.64008573599858,2,0.644397619995289,-1,0.0176287149661221
1,2,383,4,4,0.818709362007212,3,0.61705856496701,-1,0.0166581549565308
1,2,384,10,10,4.83854442898883,3,5.35830931999953,1,3.93407379800919
1,2,385,4,4,0.901026502018794,3,0.466955388023052,-1,0.0175666499999352
1,2,386,22,11,5.18894403695595,2,0.79659039597027,-1,0.205201633041725
1,2,387,5,5,1.53559846198186,3,0.580255396023858,-1,0.167576993000694
1,2,388,16,16,6.45666965999408,2,0.206660178024322,-1,0.321584280987736
1,2,389,11,10,2.25199894502293,2,0.729470524995122,-1,0.0440061800181866
1,2,390,7,7,1.417394004995,3,0.180823014001362,-1,0.1272375700064
1,2,391,16,16,4.08792303095106,2,0.389006717945449,1,0.078965426015202
1,2,392,16,18,4.02109866996761,2,0.400862673006486,-1,0.0164848919957876
1,2,393,26,20,3.03701427602209,2,0.573845462000463,1,0.321584638033528
1,2,394,17,18,13.5652284200187,2,0.579743676004,1,0.470880020991899
1,2,395,18,15,2.95335611398332,1,0.651016727031674,1,0.4179569259868
1,2,396,11,12,5.95670922100544,2,0.556868773011956,-1,0.351795149035752
1,2,397,4,4,0.866971794981509,3,0.353099904954433,-1,0.0165335750207305
1,2,398,22,15,1.48452181101311,1,0.894231621001381,-1,0.0173651929944754
1,2,399,11,12,1.56843296799343,3,0.852062807010952,-1,0.0164505499997176
1,2,400,9,7,6.82512150501134,3,0.831019969948102,-1,0.263058478012681
1,2,401,16,999,30.0169662620174,2,1.50357737403829,-1,1.0301630210015
1,2,402,29,20,4.83862859499641,2,1.10163516097236,1,0.058289774984587
1,2,403,23,16,1.28404628799763,1,0.584678476967383,-1,0.226099663996138
1,2,404,5,5,1.05133354302961,3,1.02937118301634,-1,0.0164883849793114
1,2,405,24,18,1.80114953499287,2,1.10064475802938,-1,0.0582560990005732
1,2,406,4,4,1.0349232640001,3,0.835959192016162,-1,0.0174505680333823
1,2,407,16,13,5.57282899104757,3,0.717379794979934,-1,0.209759655990638
1,2,408,26,15,3.73784820502624,2,0.499645991018042,-1,0.0176402899669483
1,2,409,24,15,4.15492956299568,1,1.38015880499734,-1,0.57423602801282
1,2,410,4,4,1.10144283500267,3,0.608791682985611,-1,0.01764691300923
1,2,411,18,16,7.02418984298129,2,0.680198008019943,-1,0.302410394011531
1,2,412,22,15,4.63823199202307,2,0.705131709983107,-1,0.0174190500401892
1,2,413,29,17,4.70486160099972,2,0.467535270028748,1,0.0166136770276353
1,2,414,17,15,4.08752434002236,2,0.420443382987287,-1,0.277575145999435
1,2,415,21,11,1.73541128303623,1,0.532743426971138,-1,0.0174281150102615
1,2,416,23,16,1.76835570699768,2,0.684015570033807,-1,0.243539702962153
1,2,417,7,7,1.48499184002867,3,0.572232846054249,-1,0.0482664000010118
1,2,418,16,11,3.07071116997395,2,0.632613948022481,-1,0.952310678025242
1,2,419,5,5,1.76860698999371,3,0.86363929399522,-1,0.142355181043968
1,2,420,16,14,3.45394383004168,2,1.73520458297571,-1,0.105257432966027
1,2,421,4,4,1.0505762489629,3,0.171635131002404,-1,0.328181363991462
1,2,422,19,13,1.71827106102137,2,0.531001578026917,-1,0.391391219978686
1,2,423,4,5,2.53531193500385,3,0.531987055961508,-1,0.0171324020484462
1,2,424,22,14,5.10599215800175,2,0.34115334704984,1,0.106514037994202
1,2,425,13,13,7.32543264800915,2,6.07167158200173,-1,0.912779206002597
1,2,426,15,11,1.95259989704937,2,0.602729276986793,-1,0.016737709986046
1,2,427,13,12,5.80689702398377,2,0.27892916998826,-1,0.0924371290020645
1,2,428,4,4,0.950619154958986,3,0.140632733993698,-1,0.327773894998245
1,2,429,24,15,3.65459629701218,2,0.325290593027603,-1,0.0349814830115065
1,2,430,7,8,2.70238724799128,3,0.344890952983405,-1,0.070057770004496
1,2,431,27,16,3.72123826300958,2,0.437981174967717,-1,0.0172013050178066
1,2,432,7,8,1.33419781300472,3,0.344053642009385,-1,0.0173630879726261
1,2,433,9,9,5.73951740300981,3,0.814429240010213,1,0.0400376309989952
1,2,434,4,4,0.90185027802363,3,0.0964841729728505,-1,0.391178602993023
1,2,435,27,16,1.48490986705292,2,0.435174662037753,-1,0.017522837035358
1,2,436,28,21,1.90260385500733,2,0.906285015982576,1,0.175749526009895
1,2,437,4,4,0.935088735015597,3,0.115823999978602,-1,0.275575753010344
1,2,438,24,18,2.43606692302274,2,0.696999184030574,1,0.0175075189908966
1,2,439,20,20,1.66901701601455,2,0.617311409034301,-1,0.0890704409684986
1,2,440,29,19,1.50235956796678,2,0.264980826992542,-1,0.696363859984558
1,2,441,7,7,1.28457198501565,3,0.149716564978007,1,0.46668570995098
1,2,442,13,15,1.60183933598455,2,0.580228597042151,-1,0.198514201038051
1,2,443,7,7,1.16896526596975,3,0.213452782016248,-1,0.262030962971039
1,2,444,21,15,1.51825546100736,2,0.339613647956867,-1,0.176993033965118
1,2,445,13,11,1.70188020798378,3,0.274257946992293,-1,1.62506089004455
1,2,446,23,18,8.02523086301517,2,0.584393370954785,-1,0.155266751011368
1,2,447,12,11,1.43626750999829,2,0.382070234976709,-1,0.224535794986878
1,2,448,29,17,1.66816486499738,2,0.393064512987621,1,0.0210452579776756
1,2,449,11,10,1.46716508100508,2,0.484050414001103,-1,0.0164373249863274
1,2,450,28,999,1.7851185129839,2,0.668633189983666,-1,0.0285999969928525
1,2,451,16,12,1.46859247999964,2,0.69130949297687,1,0.0341994609916583
1,2,452,11,10,1.50109145301394,2,0.604006630019285,-1,0.117284712963738
1,2,453,16,11,1.33500856300816,2,0.861193382996134,1,0.27031289198203
1,2,454,10,7,2.83670296997298,3,0.750277950952295,-1,0.0166273320210166
1,2,455,24,15,2.0358710080036,2,0.579791108029895,-1,0.669876460975502
1,2,456,23,18,1.51834612002131,2,0.364616324019153,1,0.0863955800305121
1,2,457,29,20,2.56980654003564,2,0.270725928014144,1,0.0166398679721169
1,2,458,22,14,1.73490799195133,2,0.925329510006122,1,0.106090809975285
1,2,459,27,19,2.11978212499525,3,4.49507330002962,-1,0.0167061900137924
1,2,460,22,16,2.61957185599022,3,0.375671048008371,1,0.0355650150449947
1,2,461,22,13,1.5354079179815,2,0.127418485004455,-1,0.0175860450253822
1,2,462,4,4,1.25224372802768,3,0.0864168160478584,-1,0.339903240965214
1,2,463,16,12,6.20672434900189,2,0.517781749018468,-1,0.0165036249672994
1,2,464,10,9,2.85331918799784,3,0.597564040974248,1,0.0561040079919621
1,2,465,15,11,1.46745594299864,3,0.634091779007576,-1,0.0345755949965678
1,2,466,4,4,1.08471708797151,3,0.0981447519734502,-1,0.328582144982647
1,2,467,29,16,1.18490740598645,2,0.529985273024067,-1,0.183213711017743
1,2,468,22,20,3.23738255497301,2,0.353497094998602,1,0.0169043589849025
1,2,469,28,18,2.936624414986,1,1.00086116802413,1,0.995869947015308
1,2,470,13,11,1.31837370997528,3,0.331094219989609,1,0.384355592017528
1,2,471,4,4,1.30204489699099,3,0.0619904189952649,-1,0.589324746979401
1,2,472,29,14,1.45253136998508,2,0.516196348995436,-1,0.145544190017972
1,2,473,5,5,1.00131523696473,3,0.380969000980258,1,0.0166963610099629
1,2,474,7,8,1.45143260702025,3,0.478997911035549,1,0.0384006430394948
1,2,475,15,15,1.40144570200937,2,0.59840963804163,-1,0.0173471099697053
1,2,476,11,11,1.3183468170464,2,0.608606406021863,1,0.0171246899990365
1,2,477,22,15,1.3014333100291,2,0.494421201001387,1,0.0175554930465296
1,2,478,5,5,1.01729804603383,3,0.388456062006298,-1,0.0323551769834012
1,2,479,4,4,0.918065261968877,3,0.0612686430104077,-1,0.50968976796139
1,2,480,16,13,1.26836757495767,2,0.333098078030162,-1,0.323088600009214
2,2,241,29,14,2.95357261702884,2,4.00420327798929,-1,0.995692142983899
2,2,242,24,18,1.73564924998209,3,0.898828877951019,1,1.4326622140361
2,2,243,14,12,1.73565415490884,2,0.546251954976469,-1,0.742705954005942
2,2,244,7,7,2.30343244201504,3,0.802688351017423,-1,0.701490264968015
2,2,245,7,8,1.96890311397146,3,0.689412743085995,1,0.719012254034169
2,2,246,20,16,1.63524256600067,2,0.76361367397476,-1,1.15997837798204
2,2,247,29,18,1.91895794996526,2,2.48897661303636,1,0.774623516015708
2,2,248,11,11,3.20345768390689,3,0.935574670089409,1,0.523582073044963
2,2,249,15,12,1.73526464507449,2,0.550953208003193,1,0.675399961066432
2,2,250,17,16,1.68534430500586,2,0.854577679070644,1,1.27859719796106
2,2,251,22,17,1.66840613808017,2,1.24717931007035,-1,2.08668588590808
2,2,252,7,8,5.72301838605199,3,0.934601034037769,1,0.411945907981135
2,2,253,11,9,2.06902555306442,2,0.785706548951566,-1,0.579333069035783
2,2,254,16,12,1.61845852993429,2,0.753095739986748,1,2.74933347001206
2,2,255,28,19,2.06892260105815,1,1.70063410408329,1,1.3774879979901
2,2,256,24,16,1.73534211202059,2,1.19400209595915,-1,0.860258045024239
2,2,257,13,10,2.55292445106898,2,0.706154535990208,1,1.38442275102716
2,2,258,29,16,1.46846914698835,2,2.50325174699537,-1,1.61961726902518
2,2,259,9,9,2.05241772299632,3,0.695475454907864,-1,0.33419476589188
2,2,260,23,13,3.08676237496547,1,6.57344447798096,-1,0.968996013049036
2,2,261,22,13,1.31807003100403,2,0.85065018502064,-1,2.43534609500784
2,2,262,7,7,1.85206352302339,3,0.623061305028386,-1,0.232459548977204
2,2,263,29,13,1.16799384495243,2,1.02230562001932,-1,0.975904977996834
2,2,264,15,12,1.76865626603831,2,0.781174854957499,-1,1.08076917997096
2,2,265,8,8,3.38717705302406,3,0.599767017993145,-1,0.106010280898772
2,2,266,29,17,2.0689868000336,1,2.45360507001169,-1,1.5319265750004
2,2,267,25,20,1.76860387099441,1,0.796473104972392,1,1.12030196003616
2,2,268,22,18,2.21917890501209,2,2.85572125692852,-1,1.61417544994038
2,2,269,7,7,2.48626757995225,3,0.56857438699808,-1,0.139459901023656
2,2,270,11,10,2.16913729999214,2,1.41428913897835,-1,5.05678821296897
2,2,271,7,8,2.6029869960621,3,1.36514884105418,1,2.72667660505977
2,2,272,11,11,2.03560661606025,2,0.803278156090528,1,1.31776788097341
2,2,273,11,10,2.50278090906795,2,0.854205490089953,1,0.142362086102366
2,2,274,5,5,2.3026564050233,3,0.908231734996662,-1,1.09819736797363
2,2,275,7,7,2.61966095701791,3,0.545974810956977,-1,1.8000570749864
2,2,276,4,4,0.984521783073433,3,0.617256729979999,-1,0.827413709950633
2,2,277,24,19,2.0022678130772,1,0.343597052036785,1,0.989121583057567
2,2,278,21,20,1.8020902199205,2,1.75779254292138,1,1.30577256705146
2,2,279,29,19,1.75194466498215,2,1.61881198000629,1,0.658654199913144
2,2,280,21,16,1.73537022003438,2,0.895351240993477,-1,0.870504000922665
2,2,281,16,16,1.68521723302547,2,0.615098196081817,1,0.92944893008098
2,2,282,20,15,1.95232937298715,2,0.560764017980546,-1,0.597722296020947
2,2,283,27,14,1.31815795507282,2,1.42607552499976,-1,2.00333101395518
2,2,284,11,10,3.73755853693001,3,2.18267731997184,1,0.288957391981967
2,2,285,22,13,1.45170925196726,2,1.30185253103264,1,0.883202998084016
2,2,286,29,17,1.8187148750294,2,1.25944195094053,1,2.78008793608751
2,2,287,21,16,4.88871751597617,2,0.768535848008469,-1,2.5965974710416
2,2,288,26,15,3.05339689797256,1,1.76303483196534,1,2.55824128503446
2,2,289,22,14,4.6885444780346,2,1.59482889703941,-1,1.43663334101439
2,2,290,25,18,1.80210005003028,2,1.01761881797574,1,0.81899926008191
2,2,291,4,4,1.50165413296781,3,0.503990388009697,-1,0.823022169992328
2,2,292,27,13,1.46829398605041,2,3.12065163697116,1,1.30842138594016
2,2,293,11,11,3.43711544491816,3,0.676106490078382,1,0.220138508011587
2,2,294,13,13,4.17133834795095,2,11.9095976339886,-1,1.04020676203072
2,2,295,7,7,2.83645901607815,3,6.01412428100593,-1,1.01114036189392
2,2,296,18,13,1.55174115893897,2,6.39727166807279,-1,2.38626339600887
2,2,297,21,19,1.75203868001699,1,4.1821362109622,1,3.24693664198276
2,2,298,15,11,2.30259251501411,2,2.91228755097836,-1,2.54041050910018
2,2,299,17,9,4.33817237697076,2,1.74321982800029,-1,0.835094639915042
2,2,300,23,14,1.66854540002532,3,0.556642372976057,-1,0.864867376047187
2,2,301,24,14,2.01892775204033,2,2.38184795796406,1,1.10430836305022
2,2,302,23,16,2.15249107498676,2,1.51155901805032,-1,3.58132430899423
2,2,303,22,14,2.26930596190505,2,0.552986061084084,-1,0.213672848069109
2,2,304,4,4,1.13466927502304,3,0.408135513076559,-1,0.362320512998849
2,2,305,4,4,0.917729869950563,3,0.428063852945343,-1,1.40650082495995
2,2,306,16,10,2.56954017397948,2,0.955246860976331,-1,0.9995474179741
2,2,307,20,14,1.51845977990888,2,0.571898851078004,1,0.99215883796569
2,2,308,16,10,2.23586138593964,3,0.943197889951989,1,0.628498564939946
2,2,309,4,4,0.851001791073941,3,0.466109625995159,-1,0.210128580918536
2,2,310,20,9,2.43606572994031,2,1.55080194305629,-1,0.10579089995008
2,2,311,22,12,3.17021178302821,1,1.93522357998881,-1,1.5386333160568
2,2,312,5,5,1.58510056801606,3,0.362650358001702,-1,0.350014479947276
2,2,313,17,11,1.98557933897246,2,0.836050656973384,-1,1.31689003994688
2,2,314,23,14,1.83547633502167,2,2.44346131791826,1,1.5233680800302
2,2,315,22,18,1.86881752498448,2,0.623524753027596,1,0.425251596956514
2,2,316,15,14,2.50285800208803,2,0.479356431984343,1,1.07122933492064
2,2,317,10,12,3.70420072297566,3,0.491132454015315,1,0.458014866919257
2,2,318,10,9,3.32037390395999,3,0.214090471039526,-1,0.208701980067417
2,2,319,7,7,2.18586906499695,3,0.267223706934601,-1,0.211289803031832
2,2,320,4,4,1.01781315391418,3,0.181515228003263,-1,0.57760577800218
2,2,321,16,13,5.23922757292166,3,0.41674077801872,-1,0.107089994940907
2,2,322,22,18,2.20244258595631,1,0.134017650038004,1,1.23516392603051
2,2,323,17,15,1.61851371091325,2,1.24661096103955,-1,2.02356473705731
2,2,324,23,16,1.40166309499182,2,0.650706975022331,-1,1.20346099394374
2,2,325,29,14,2.5028599499492,2,0.600103038013913,-1,0.40155201498419
2,2,326,18,15,2.28596690203995,2,0.676378605072387,1,0.644168399972841
2,2,327,4,4,1.46836997196078,3,0.852538114995696,-1,0.40483623102773
2,2,328,22,17,5.25577884702943,2,0.583452933002263,1,0.378273178939708
2,2,329,19,18,1.88549505698029,2,0.76198164105881,-1,0.238762388005853
2,2,330,4,4,1.2848673859844,3,0.67864678800106,-1,0.150416744989343
2,2,331,25,16,2.7030862349784,1,0.410022650961764,-1,0.763968729996122
2,2,332,29,20,2.55294114700519,2,0.662252902984619,1,0.670915836002678
2,2,333,27,17,1.96894452197012,2,0.793029031017795,-1,0.963944480987266
2,2,334,16,12,1.98561750294175,2,0.589821671019308,-1,0.345169023028575
2,2,335,4,4,1.06795611197595,3,0.293605066020973,-1,0.051848374074325
2,2,336,19,10,2.01892742107157,2,0.364033228950575,-1,1.49609944096301
2,2,337,11,9,2.085673875059,2,0.530626638908871,-1,0.272196440026164
2,2,338,29,16,1.91887342196424,2,1.27296841202769,-1,0.720650463015772
2,2,339,11,11,3.97114409192,3,0.522397362976335,-1,0.495728853042237
2,2,340,4,4,0.917745030019432,3,0.560286117019132,-1,0.124682098976336
2,2,341,5,5,1.58507137396373,3,0.369642946054228,-1,0.549010994960554
2,2,342,27,14,4.03798017697409,2,0.327434361097403,1,1.91018638806418
2,2,343,5,5,1.71863934199791,3,0.520678486907855,-1,0.894564696005546
2,2,344,12,16,5.88992260198575,2,1.05821031692903,1,0.0341685629682615
2,2,345,24,18,1.90212511701975,1,2.93293457000982,1,0.887794995098375
2,2,346,22,18,2.11903767299373,2,1.20790784806013,1,0.83188815205358
2,2,347,22,14,1.91878408903722,1,0.151970595936291,1,0.493069170974195
2,2,348,24,16,2.05233549291734,1,0.321979881031439,-1,0.680318508995697
2,2,349,16,17,7.50838513404597,2,0.57487759902142,1,1.41071222303435
2,2,350,11,13,4.45503381395247,2,1.23314221797045,-1,0.625522038084455
2,2,351,4,4,1.43512104998808,3,0.415236197994091,-1,0.425352012971416
2,2,352,28,11,2.16910026094411,2,6.02655452105682,-1,0.718695592950098
2,2,353,26,16,1.60231815709267,2,0.597212891909294,-1,0.464552505989559
2,2,354,16,10,4.05451748298947,3,0.636573415016755,-1,0.317028344958089
2,2,355,21,9,3.23694138601422,1,2.33334191294853,-1,0.102986874058843
2,2,356,15,15,5.28923952800687,2,1.37154173396993,1,0.246780086075887
2,2,357,17,16,6.45705440500751,2,0.364370509050786,1,0.520771660027094
2,2,358,11,14,3.45392645196989,3,0.512156573007815,-1,1.55087293300312
2,2,359,23,17,5.95667652995326,2,0.482782625011168,1,0.60161852708552
2,2,360,16,15,5.7063397919992,2,2.54635285492986,1,0.292744444101118
2,2,361,25,19,2.41944843507372,1,1.3200552649796,1,0.661626824992709
2,2,362,4,4,1.68508831993677,3,1.79052911500912,-1,1.45691713003907
2,2,363,29,16,1.56847755005583,1,1.03183607500978,-1,0.0384992859326303
2,2,364,23,18,1.56842548493296,2,0.568230301956646,1,0.708554418990389
2,2,365,7,9,2.91987316997256,3,0.558189147966914,-1,0.0169700529659167
2,2,366,19,15,2.90315225697123,2,1.25304129405413,-1,0.492800885927863
2,2,367,16,16,2.13579739595298,2,0.373519217013381,1,0.489622527966276
2,2,368,18,18,5.57292258494999,1,0.869577705976553,1,1.05350448400714
2,2,369,4,4,0.86770212999545,3,0.489775868947618,-1,0.464708919986151
2,2,370,29,17,5.37246249604505,2,1.86448170198128,-1,4.79192581307143
2,2,371,23,14,1.53507032804191,2,0.992988622980192,-1,0.515338249970227
2,2,372,26,18,3.45390028809197,2,3.11457729106769,1,0.422268357942812
2,2,373,29,13,1.88549462100491,2,0.691655443049967,-1,0.170546487090178
2,2,374,8,8,2.53616140503436,3,1.89752190408763,-1,0.191561839892529
2,2,375,29,16,2.05232151190285,2,1.62369313300587,-1,1.63863256492186
2,2,376,19,11,1.55181243200786,2,0.776882994920015,1,0.227807090966962
2,2,377,19,16,5.43944070499856,1,0.713120480068028,1,1.12692891503684
2,2,378,5,5,1.40162797505036,3,0.678440187009983,-1,0.0384379629977047
2,2,379,29,16,3.6207684520632,2,0.572466567973606,1,0.952527563087642
2,2,380,7,7,2.80287024297286,3,0.600290775997564,1,0.099840970011428
2,2,381,18,12,2.81980661093257,2,0.96817473997362,-1,0.908507070038468
2,2,382,19,16,2.13578333496116,2,0.417409004992805,1,4.51533411093988
2,2,383,25,18,2.21922594297212,2,0.625896365032531,1,0.227969144005328
2,2,384,17,9,2.35269408195745,2,1.01029212598223,-1,0.515614390023984
2,2,385,16,14,4.32152764301281,2,0.352571911062114,-1,1.20548791799229
2,2,386,4,4,1.58512255304959,3,0.95923071494326,-1,0.258575325016864
2,2,387,25,11,4.8721050019376,2,0.554291400010698,-1,0.142815451021306
2,2,388,6,6,2.235822423012,3,0.898959442973137,-1,0.0327228270471096
2,2,389,6,6,2.06899353896733,3,0.294073580997065,-1,0.836773640010506
2,2,390,10,9,2.55289675004315,3,0.373927520937286,-1,0.272889207000844
2,2,391,11,10,3.45385624200571,3,0.30685923807323,1,0.361735259066336
2,2,392,16,14,4.03779018996283,2,0.572439356008545,1,0.528148866957054
2,2,393,16,13,5.4728126419941,2,0.891201331978664,-1,1.29823625797872
2,2,394,29,16,4.63848859001882,1,0.527521730982699,1,0.901204130030237
2,2,395,10,10,3.1702370980056,3,0.610739848925732,-1,0.373169066035189
2,2,396,14,14,5.70640014496166,2,1.04050313995685,-1,1.00852252799086
2,2,397,22,17,5.12245426699519,2,3.78244738897774,1,1.31788510095794
2,2,398,4,4,1.40161453105975,3,1.20058660092764,1,0.538372935028747
2,2,399,4,4,0.95111880893819,3,0.643392573110759,-1,0.628913693013601
2,2,400,11,10,3.42047430202365,3,0.307848116965033,1,0.290823798044585
2,2,401,20,16,1.58513062598649,2,0.627030017087236,1,0.941109020030126
2,2,402,4,4,1.63519458298106,3,0.892889934009872,-1,0.235398498014547
2,2,403,4,4,1.00115924910642,3,0.649156467989087,-1,0.401971578015946
2,2,404,23,16,3.02006925200112,2,2.53065776999574,-1,1.35031104204245
2,2,405,24,18,3.92104738298804,3,1.98253836901858,-1,1.75949969491921
2,2,406,19,16,2.66969086497556,2,2.15223511692602,1,2.31348740693647
2,2,407,6,6,3.68749689101242,3,0.808527674991637,-1,0.0347371650859714
2,2,408,22,11,2.30258306593169,2,3.08067695004866,-1,1.58838773099706
2,2,409,13,13,4.35490892303642,2,1.39073773892596,-1,0.337331447051838
2,2,410,4,4,1.03456837695558,3,0.582352461991832,-1,0.249122190987691
2,2,411,11,10,2.88658363500144,3,0.76174578606151,1,0.222598399966955
2,2,412,13,11,3.6540645819623,3,1.05015889997594,1,0.210175526910461
2,2,413,28,15,2.03567415697034,1,1.56404572993051,1,1.14328550791834
2,2,414,22,16,4.55504364403896,2,1.59059248003177,-1,1.82514173805248
2,2,415,24,16,2.97005778201856,2,5.17723884200677,1,1.16759764298331
2,2,416,29,18,4.03786390798632,2,1.90341897797771,1,0.0935401620808989
2,2,417,18,9,6.37383162195329,1,1.18450969306286,-1,0.211380228982307
2,2,418,28,21,2.61973456095438,2,0.935874287970364,1,0.220680530066602
2,2,419,27,17,5.27255030500237,2,0.734084377065301,-1,0.306831644964404
2,2,420,11,13,3.95445340499282,3,0.511747459997423,-1,0.293473366997205
2,2,421,9,10,2.95328778703697,3,0.774303630925715,-1,1.3220658749342
2,2,422,21,1,2.21922455308959,1,1.69449724897277,-1,0.044439009972848
2,2,423,22,16,1.78542964998633,2,1.65790206298698,-1,0.273537226952612
2,2,424,22,18,10.7286459259922,1,0.833586937049404,1,1.06579250097275
2,2,425,16,12,3.30367035802919,2,1.40287682996131,-1,0.452792951953597
2,2,426,22,16,2.36931697197724,2,2.60567730595358,1,0.99036224198062
2,2,427,16,11,2.0523821200477,2,0.451869913027622,-1,1.33263088797685
2,2,428,5,5,2.05234750290401,3,0.881666163098998,-1,0.215330516104586
2,2,429,16,10,1.58519992302172,3,0.914093416067772,-1,0.248408204992302
2,2,430,13,11,2.08556813304313,2,0.50845954590477,1,0.555519992951304
2,2,431,13,10,2.20245442795567,2,0.735345124034211,-1,1.65261990309227
2,2,432,16,1,2.58623315999284,1,2.73517515009735,-1,0.0181620439980179
2,2,433,14,17,3.10349848796614,2,1.53626906301361,-1,3.80449858494103
2,2,434,26,15,1.78532659506891,2,2.42015951592475,-1,3.35589343693573
2,2,435,8,9,2.86991878692061,3,0.736874197027646,1,0.502192872925662
2,2,436,11,11,3.13685288000852,3,0.348938367911614,1,0.0582148060202599
2,2,437,18,17,1.8354545320617,2,0.809548920020461,-1,0.275501830969006
2,2,438,18,11,1.61848870001268,2,0.782110949978232,-1,0.225851126015186
2,2,439,26,14,1.38488841091748,2,0.328724807011895,1,0.253044030047022
2,2,440,22,16,1.26818369806278,2,0.504141725949012,-1,0.574932413059287
2,2,441,27,17,1.13461734494194,2,0.415198188042268,1,1.52864717901684
2,2,442,22,16,1.81870036001783,2,0.0854334060568362,-1,0.261046952917241
2,2,443,18,11,1.63521819701418,2,0.302437321050093,-1,0.219807561021298
2,2,444,8,8,3.23698239808436,3,0.980068683042191,-1,0.103711187955923
2,2,445,29,14,2.11912679800298,2,1.22507575899363,-1,0.0420135820750147
2,2,446,18,16,2.56960514001548,1,0.250580510939471,1,1.37120624003001
2,2,447,21,14,1.65186544600874,2,0.603000177885406,-1,0.69310354499612
2,2,448,29,15,2.13575813209172,2,0.587786129908636,-1,0.878466187976301
2,2,449,16,10,2.21915640693624,2,1.19854333496187,1,0.600326051004231
2,2,450,20,12,2.20251236995682,2,0.542287375079468,-1,0.419175200979225
2,2,451,26,16,1.43486164603382,2,0.718517097993754,1,1.05202351603657
2,2,452,4,4,1.38493405701593,3,0.523627807968296,1,0.295764971990138
2,2,453,16,16,3.1536488509737,2,2.51936953503173,1,1.07541025697719
2,2,454,17,13,2.10234553006012,2,1.71500704006758,-1,0.248059800011106
2,2,455,13,10,2.552862570039,3,0.929584941943176,-1,2.03888312494382
2,2,456,29,18,2.05236791493371,1,0.612294476013631,1,0.375105593004264
2,2,457,5,5,2.15246473497245,3,0.42691511393059,-1,1.9004567109514
2,2,458,8,9,3.23701138200704,3,0.748316525947303,1,0.409077728050761
2,2,459,22,10,1.80208325700369,2,0.796409799018875,-1,0.726989349001087
2,2,460,4,4,1.75190601998474,3,1.22752162290271,-1,0.0530423750169575
2,2,461,4,4,1.38493661000393,3,0.363366425037384,-1,0.416459275991656
2,2,462,29,12,1.55177848797757,2,0.456355395028368,-1,0.616886264993809
2,2,463,12,10,2.45281409996096,2,0.868687811074778,-1,0.540173972025514
2,2,464,10,9,3.00335293402895,2,1.09187468502205,-1,0.0893028150312603
2,2,465,23,13,2.03562142502051,2,1.00279932795092,1,0.293441484915093
2,2,466,7,8,2.48612758901436,3,0.552500992896967,1,0.172154321917333
2,2,467,12,11,4.2213583260309,3,0.382461435976438,1,0.328557422966696
2,2,468,28,16,1.80213538801763,2,1.28839729796164,-1,0.575393441948108
2,2,469,16,10,2.78643380803987,2,0.44553448795341,1,0.341999772936106
2,2,470,14,11,3.58741071505938,2,0.494399966089986,-1,0.81990025297273
2,2,471,11,9,4.67187341803219,3,0.991095299948938,-1,0.249861652962863
2,2,472,5,6,2.2692323330557,3,0.834175752941519,-1,0.699474697001278
2,2,473,26,12,4.02113911998458,2,0.560312159010209,1,0.65369682200253
2,2,474,12,11,4.33822630299255,3,0.662689769989811,-1,0.0863144579343498
2,2,475,7,7,2.60298970504664,3,0.720605398062617,-1,0.182609365088865
2,2,476,6,6,1.73535487207118,3,0.322596059995703,-1,0.216681813006289
2,2,477,27,13,2.28595656808466,2,1.32881115097553,-1,0.718587697017938
2,2,478,4,4,1.5350424250355,3,0.526138224988244,-1,0.620557026006281
2,2,479,16,14,2.33594538108446,2,0.621806435985491,-1,2.50387636607047
2,2,480,9,8,3.95443583803717,3,0.924235041020438,-1,0.449592180899344
3,2,241,27,23,3.7711626678938,2,2.9378333420027,-1,0.565644967951812
3,2,242,27,25,4.95590147702023,2,1.00791425805073,-1,1.37059157097246
3,2,243,8,11,1.50188156298827,3,0.489751364919357,-1,0.898119417019188
3,2,244,7,9,2.15296441700775,3,0.786749209975824,-1,1.0627289460972
3,2,245,7,8,4.53853281994816,3,1.00675809604581,-1,0.0169037070591003
3,2,246,11,13,2.73654726194218,3,1.55974468297791,-1,0.0168654549634084
3,2,247,4,4,1.00110550504178,3,0.499201128026471,1,0.545233980985358
3,2,248,20,19,4.73869085602928,2,0.708772719022818,-1,1.1220952909207
3,2,249,24,30,3.77076455007773,2,0.766436579986475,1,0.0168259780621156
3,2,250,21,26,1.76867471996229,2,1.35283091105521,1,0.0168566220672801
3,2,251,10,22,4.55508154095151,3,0.662115579005331,1,1.02994062996004
3,2,252,16,26,2.80309230496641,3,1.06507836899254,-1,0.0551043290179223
3,2,253,22,26,2.75306843302678,2,0.532214002916589,-1,0.345828582998365
3,2,254,19,28,5.0238465910079,2,0.310094419051893,1,0.157050175010227
3,2,255,6,9,3.63733595202211,3,1.16571612295229,-1,0.0257487570634112
3,2,256,20,21,7.77528522000648,2,0.607313759042881,1,0.0403990029590204
3,2,257,11,13,2.73643267096486,2,0.618404180975631,1,0.389135921024717
3,2,258,4,5,1.38518097996712,3,1.35808822000399,1,0.545569792971946
3,2,259,27,23,3.00345372490119,2,0.615884835016914,-1,0.369395680027083
3,2,260,22,30,4.48828754399437,3,2.19924936408643,1,3.09560573101044
3,2,261,8,9,3.08684497303329,3,1.23180655494798,-1,1.28884407691658
3,2,262,7,11,7.77532067999709,3,2.91518580703996,-1,2.18337439198513
3,2,263,15,24,3.45358039496932,3,0.940950724994764,1,1.16205301403534
3,2,264,7,8,2.302674637991,3,0.726521836942993,1,0.0677080799359828
3,2,265,21,27,5.63963638502173,2,0.921104039996862,-1,0.8062691220548
3,2,266,4,4,1.1012664049631,3,0.32161766604986,1,0.688368986011483
3,2,267,26,20,5.85648252291139,3,6.84634155000094,1,0.984817064949311
3,2,268,9,9,2.06912366207689,3,1.16188482998405,-1,0.549480337067507
3,2,269,11,16,1.4183262080187,3,1.02192781295162,-1,2.99957280396484
3,2,270,11,19,5.0557420020923,2,0.930950597976334,1,1.35112508002203
3,2,271,4,4,1.00126576900948,3,0.199285538052209,1,0.601704044966027
3,2,272,10,12,1.96884254703764,2,0.745814257999882,1,0.0169165469706059
3,2,273,27,32,2.25246688001789,3,1.6049184629228,1,1.40591406298336
3,2,274,26,22,2.36930419900455,3,1.2415754039539,-1,1.41832157108001
3,2,275,7,8,1.86883433908224,3,1.07582811592147,-1,0.0168957730056718
3,2,276,23,23,4.38823091995437,2,0.631585418013856,1,0.280717422021553
3,2,277,16,24,4.18798919895198,3,1.27579308010172,1,2.15453909197822
3,2,278,7,9,4.30486126802862,3,0.329061542986892,1,1.94406360003632
3,2,279,4,4,0.934403449995443,3,0.525095668039285,1,1.06778783909976
3,2,280,14,13,4.42162557202391,2,0.814237245940603,-1,5.16032476094551
3,2,281,15,16,2.6697389150504,2,0.652637882041745,-1,0.0288365359883755
3,2,282,18,16,14.8998644700041,2,1.30496372503694,1,1.04728767904453
3,2,283,17,12,5.87322616006713,2,0.8977242030669,1,1.6961329090409
3,2,284,11,12,1.91887049505021,3,0.887324098031968,-1,0.365841110935435
3,2,285,21,25,2.30263480299618,2,0.819533864036202,1,0.0169234280474484
3,2,286,22,30,5.17240932502318,1,0.267867930000648,1,0.0194663690635934
3,2,287,13,21,4.50508314999752,2,0.753214047988877,1,1.10161380004138
3,2,288,5,6,1.85202342504635,3,0.72006960795261,1,0.357186172972433
3,2,289,13,16,3.35378828307148,2,0.845225409953855,1,1.69396635494195
3,2,290,26,24,2.68638872099109,3,2.61306899203919,-1,5.10937046294566
3,2,291,16,23,4.07109666801989,2,0.755698638036847,1,0.76033517497126
3,2,292,29,29,4.48831665492617,2,1.97945159603842,1,0.64602196298074
3,2,293,28,30,9.41037967603188,2,5.47934600198641,-1,1.04832379007712
3,2,294,5,5,1.13456322695129,3,0.208699638023973,1,0.0191159290261567
3,2,295,4,4,1.36826917005237,3,0.172091217944399,1,0.0170582770369947
3,2,296,28,35,2.23582406807691,2,1.38616326195188,-1,0.572618088102899
3,2,297,18,20,4.58848878496792,3,3.1277956579579,1,0.731191371101886
3,2,298,22,27,6.3904901019996,2,0.828046665992588,-1,0.925665881019086
3,2,299,28,36,2.61966115701944,2,4.10307935008314,-1,0.913301039952785
3,2,300,5,5,1.41842436196748,3,0.359917585970834,1,0.892897295998409
3,2,301,4,4,1.08456937002484,3,1.44891989498865,1,0.192527320003137
3,2,302,27,40,2.51956168701872,2,1.30878673493862,1,0.0169797950657085
3,2,303,4,5,1.45172961603384,3,0.206771602039225,1,0.0169367219787091
3,2,304,7,8,2.11894940992352,3,0.951888348092325,1,0.0170681980671361
3,2,305,22,23,5.7564501099987,2,0.724732881993987,1,0.0170260899467394
3,2,306,13,21,3.87095759506337,2,1.03901045501698,1,0.28767902799882
3,2,307,4,5,1.00118602998555,3,0.246761217014864,1,0.0169729149201885
3,2,308,17,23,3.18700961302966,3,1.44387822994031,-1,0.0169865000061691
3,2,309,16,26,4.47169604199007,2,1.05086062499322,1,0.529427414992824
3,2,310,29,26,3.65393884503283,2,0.587758032022975,1,0.0168595700524747
3,2,311,29,23,6.80756216007285,2,0.647271375055425,1,0.0168769330484793
3,2,312,16,24,8.07542376709171,2,2.67553106497508,-1,0.248106665094383
3,2,313,26,28,3.4037835849449,2,3.11190368107054,-1,0.106381997000426
3,2,314,29,36,1.45167011104058,2,1.02694502007216,1,0.930508708930574
3,2,315,23,29,3.871034987038,2,0.96849595499225,1,0.506650666007772
3,2,316,22,34,2.56964757002424,2,0.757846941007301,-1,0.417114754905924
3,2,317,29,29,3.42052762303501,2,2.93200749706011,1,0.623154120985419
3,2,318,16,16,3.07006788800936,2,0.925825610058382,-1,0.0435468780342489
3,2,319,14,19,2.93657816003542,2,0.535414870013483,-1,0.0169472619891167
3,2,320,23,30,2.85317766305525,2,0.270272152032703,1,0.029162849066779
3,2,321,19,24,3.15352779603563,2,0.103227108018473,1,0.0169408279471099
3,2,322,22,26,5.53953605995048,2,0.254437923082151,1,0.455550899961963
3,2,323,16,18,3.28704929503147,2,0.99959254800342,1,0.193453910993412
3,2,324,16,20,5.18916566297412,3,0.317767169093713,-1,0.947656800039113
3,2,325,4,4,0.951138537959196,3,0.128199700033292,-1,0.670818779966794
3,2,326,29,30,5.13905346102547,1,2.48947039805353,1,0.862967142951675
3,2,327,19,20,2.70304001797922,2,0.632128855097108,1,0.0168978299479932
3,2,328,24,27,2.83656565495767,2,0.62247836694587,1,0.0168789480812848
3,2,329,25,28,7.99225817690603,2,0.906664674985223,-1,0.184401854989119
3,2,330,29,26,6.50728379504289,2,0.558133231010288,1,0.402480764081702
3,2,331,22,29,8.85988026706036,2,0.453857318032533,1,0.318739615962841
3,2,332,29,34,4.0378839969635,2,0.519729607971385,1,0.381819325964898
3,2,333,5,6,2.26927127793897,3,0.143792369985022,1,0.0168822230771184
3,2,334,17,24,3.65417682100087,2,0.574968404020183,-1,0.689793872996233
3,2,335,27,35,4.52172098099254,2,0.151725949952379,1,0.301940669072792
3,2,336,24,26,6.32374233496375,2,0.662172305048443,1,0.0169231999898329
3,2,337,22,22,9.11010155302938,2,0.267999137984589,-1,0.0167998829856515
3,2,338,16,23,3.47058688208926,3,0.568267859984189,-1,0.491901068948209
3,2,339,4,4,1.2181072679814,3,1.07424401689786,1,0.120750250061974
3,2,340,20,23,4.67195907793939,2,0.691267127986066,-1,0.194732278003357
3,2,341,6,7,3.77094078401569,3,0.132325317012146,-1,1.73658116499428
3,2,342,26,25,4.67194278503302,2,0.702404794981703,-1,0.444569592946209
3,2,343,18,23,3.20351016998757,2,0.644600300001912,1,0.0169637249782681
3,2,344,7,6,1.85202927002683,2,0.882740625995211,1,0.0662470549577847
3,2,345,4,4,1.16812984202988,3,0.119997184956446,1,1.8790327499155
3,2,346,21,20,2.70308693789411,2,1.56151953001972,1,1.14147001097444
3,2,347,10,13,2.45280352490954,3,1.24960731400643,-1,0.0168913099914789
3,2,348,7,7,2.05236514599528,3,0.822674890980124,-1,0.416369737009518
3,2,349,28,32,2.88661746797152,2,0.21612085797824,1,0.0169173970352858
3,2,350,24,35,6.64069719507825,2,0.271909923991188,1,0.192321712034754
3,2,351,23,29,6.70742323307786,2,0.630343097960576,1,0.0169367250055075
3,2,352,19,26,5.33932957006618,2,0.173652669065632,1,0.0169142900267616
3,2,353,20,30,3.18689363601152,2,0.0605795528972521,1,0.181719501037151
3,2,354,16,24,11.8464459331008,2,0.0897174660349265,-1,0.929683263064362
3,2,355,8,9,1.75200822693296,2,0.146329152048565,-1,0.0880407869117334
3,2,356,18,27,5.572905949899,2,0.574277678038925,1,0.0169085699599236
3,2,357,18,23,3.4038838200504,3,0.253935274085961,-1,0.0169525319943205
3,2,358,19,32,4.32147124502808,3,0.247875884990208,1,0.0169044779613614
3,2,359,11,11,1.8521528900601,3,0.163672694005072,-1,0.016914019943215
3,2,360,7,7,3.50397163501475,3,0.138854885008186,-1,0.551925219944678
3,2,361,12,13,2.76983387791552,3,1.30410829104949,-1,0.844786450034007
3,2,362,18,23,7.34152468503453,3,3.08163644303568,-1,1.16696395201143
3,2,363,22,26,4.33809831494,2,0.318500848021358,-1,0.0169207899598405
3,2,364,23,23,4.3382161851041,3,1.47168943693396,-1,0.447004960034974
3,2,365,17,21,3.02009047800675,2,0.310268840985373,-1,0.0290548290358856
3,2,366,23,32,4.30478555196896,2,2.11048955493607,1,0.0169389899820089
3,2,367,26,24,3.30374302493874,2,2.90718164201826,-1,0.407139696064405
3,2,368,5,5,2.13577202695888,3,0.186428191955201,1,0.0459645440569147
3,2,369,29,24,6.47390465706121,2,1.0500904499786,-1,0.0170110950712115
3,2,370,9,12,2.68640335195232,3,0.778706885990687,1,1.72458131599706
3,2,371,12,14,3.93777523189783,2,0.335248115006834,1,0.204645121004432
3,2,372,22,23,6.77420549502131,2,0.891476719058119,-1,0.625690568005666
3,2,373,24,19,3.82093608297873,2,0.864917553029954,-1,0.0169414100237191
3,2,374,14,25,4.40483280399349,2,0.764635667088442,1,0.375022087944672
3,2,375,8,9,2.80313276895322,2,0.263831397984177,-1,0.0168970619561151
3,2,376,17,24,6.49059093499091,3,0.243375029065646,-1,1.06881947303191
3,2,377,11,12,2.61960062594153,2,1.02500252996106,-1,0.0169462281046435
3,2,378,11,13,3.28710357297678,3,0.254522069939412,-1,0.0169508940307423
3,2,379,11,14,2.53614813496824,3,0.589171821018681,-1,0.0170667800121009
3,2,380,21,25,2.91999698802829,3,0.174932732013986,1,0.378425232018344
3,2,381,11,14,2.80310063494835,2,5.07035563304089,-1,1.96070128993597
3,2,382,28,24,2.53625129698776,2,4.68964052502997,-1,0.0677388609619811
3,2,383,16,19,4.00454411306418,2,1.20257196505554,1,0.276664240984246
3,2,384,4,4,0.951130838948302,3,0.972252009087242,1,1.75181739300024
3,2,385,7,7,2.41938804695383,3,0.402859759982675,1,1.18901950400323
3,2,386,19,24,3.73749371198937,3,0.848987811012194,-1,0.223548558074981
3,2,387,21,25,3.68750784196891,3,0.536728856037371,-1,0.0169428749941289
3,2,388,22,26,4.52176271006465,2,1.86417456390336,-1,0.176043879939243
3,2,389,6,7,2.70307073299773,3,0.192714581033215,-1,0.016876554931514
3,2,390,9,8,2.78650582698174,3,0.133552565006539,1,0.0169303469592705
3,2,391,18,16,5.73968106706161,3,0.926112452987581,1,1.27618527598679
3,2,392,11,12,3.2035647300072,3,0.699890589923598,-1,0.498699774965644
3,2,393,22,27,3.52055271202698,3,0.177527299965732,1,0.0169371620286256
3,2,394,5,6,4.20481609494891,3,0.485750962048769,1,0.0169095330638811
3,2,395,29,32,7.17472384497523,2,2.04264250595588,1,0.266457990044728
3,2,396,13,13,3.38718580501154,3,0.922232980025001,-1,0.959721438004635
3,2,397,15,16,3.18697575200349,3,0.655102264950983,-1,0.191810004063882
3,2,398,4,4,1.10123568004929,3,0.14148992090486,1,0.017057660035789
3,2,399,11,14,3.50385811005253,3,0.174040258978494,1,0.448864507954568
3,2,400,24,27,2.63595745398197,3,0.181638452922925,1,0.0169188770232722
3,2,401,29,28,5.58961595501751,3,0.542588859912939,-1,0.0169344050809741
3,2,402,24,25,2.81987798504997,2,0.853310263017192,-1,0.0168899220880121
3,2,403,4,4,2.2525779629359,3,0.175209818058647,-1,0.0170465419068933
3,2,404,16,18,3.08684447000269,3,0.612973812967539,-1,0.0169817600399256
3,2,405,10,9,1.43500740698073,3,0.385803160956129,-1,0.0169395949924365
3,2,406,29,26,3.50395088002551,3,0.173820707015693,1,0.0168982029426843
3,2,407,4,4,1.98561154701747,3,0.235439762007445,-1,0.01691862300504
3,2,408,12,14,4.18805695499759,3,0.624628862948157,-1,0.016923115006648
3,2,409,16,28,4.05451895901933,2,0.454610129934736,-1,0.0170229250798002
3,2,410,29,27,7.17469857994001,2,1.20585672499146,-1,0.304514226969332
3,2,411,24,27,2.25262712698895,2,0.72506472398527,1,0.242842228035443
3,2,412,19,19,2.26921597798355,3,1.28645083401352,-1,0.980052297003567
3,2,413,29,23,2.97004142799415,2,0.385962588014081,-1,0.796715237083845
3,2,414,23,27,3.57065109105315,2,0.604024817002937,1,0.0169182179961354
3,2,415,22,32,3.17040122998878,2,0.980484285973944,1,0.0325895169517025
3,2,416,16,20,3.90443939692341,2,0.354762479080819,1,0.423263861914165
3,2,417,15,17,2.41945395502262,2,0.530042784987018,1,0.504112432012334
3,2,418,29,34,3.15357294003479,2,0.584823717013933,1,0.0170131750637665
3,2,419,22,19,5.72308043495286,2,0.553231530939229,1,0.0628673708997667
3,2,420,10,12,3.28701155504677,2,0.138516815030016,-1,0.0169136599870399
3,2,421,4,5,3.03683890704997,2,0.682568383053876,-1,0.601085299975239
3,2,422,4,4,1.0678860450862,2,0.329768161056563,1,0.0168947950005531
3,2,423,23,16,2.50284761504736,2,0.0562041649827734,1,0.0168958079302683
3,2,424,22,23,6.29039702797309,1,0.583899804973044,-1,0.683372306986712
3,2,425,15,19,4.98892809194513,1,0.552914416999556,1,0.0168383510317653
3,2,426,4,5,2.46944767201785,3,0.451319552026689,1,0.276315385010093
3,2,427,5,5,1.45160182495601,3,0.3238414429361,1,0.313985830987804
3,2,428,29,27,3.48726644704584,3,1.14689061092213,1,0.742164614028297
3,2,429,23,28,7.24137709999923,2,0.375367639935575,1,0.73031248699408
3,2,430,29,25,1.9021357310703,2,0.418584336061031,-1,0.0171609700191766
3,2,431,25,26,3.7542484550504,2,0.188968740985729,1,0.0168735020561144
3,2,432,20,24,3.33709766692482,2,1.04603780608159,-1,0.287139244028367
3,2,433,8,9,4.10462432005443,3,0.283460029982962,-1,0.0169555069878697
3,2,434,13,25,4.08788313705008,2,0.167256595916115,1,0.0169260179391131
3,2,435,16,18,2.51952357997652,2,0.145864543970674,-1,0.016959237982519
3,2,436,22,32,4.2547859379556,3,1.60677034792025,1,0.151679410017096
3,2,437,18,225,7.35815580503549,1,2.25256547401659,1,1.01188504404854
3,2,438,16,18,3.93778293288779,2,0.502969207940623,1,0.016915223095566
3,2,439,22,20,5.27250414597802,2,0.704229180002585,-1,0.016981240012683
3,2,440,16,21,5.48944152600598,2,0.280914296978153,-1,0.0169275699881837
3,2,441,23,25,4.25479390507098,3,0.743339032051153,-1,0.429026908008382
3,2,442,13,11,4.88864620798267,3,0.180200543953106,-1,0.0170622930163518
3,2,443,7,9,1.86882498499472,3,0.159784778021276,1,0.016889474936761
3,2,444,4,4,1.00119101803284,3,0.395131070050411,1,0.0304685230366886
3,2,445,22,28,3.02002338110469,2,0.861857445910573,1,0.0168802529806271
3,2,446,16,21,4.27147602301557,2,0.222341315937229,1,0.0169041069457307
3,2,447,11,16,4.77204812702257,2,0.104936116025783,-1,0.0169690200127661
3,2,448,29,18,2.63632742303889,2,1.56776800996158,-1,0.514390261028893
3,2,449,4,5,1.28484983998351,3,0.801292220014147,1,0.0169238899834454
3,2,450,22,23,3.15357066004071,2,0.650087846908718,-1,0.0169485450023785
3,2,451,16,26,3.38711467490066,2,0.210477004991844,1,0.016951136989519
3,2,452,17,24,5.7897870100569,3,0.806187932030298,1,0.0168575450079516
3,2,453,25,35,3.02011444000527,3,0.149432877078652,1,0.0169843470212072
3,2,454,20,25,7.62522342999,2,1.35579933493864,1,1.29421692399774
3,2,455,11,13,1.85213013191242,3,2.03509414300788,-1,0.267092967987992
3,2,456,25,23,2.73647981300019,3,1.55253957700916,-1,0.0169106749817729
3,2,457,11,14,3.50389925099444,3,1.94111228000838,-1,0.0169261569390073
3,2,458,7,8,1.60189419996459,3,0.232331234961748,1,0.0169318950502202
3,2,459,16,16,2.15251077502035,2,0.214457366033457,-1,0.0170733650447801
3,2,460,22,25,4.73853450699244,2,0.382248835056089,-1,0.0410208950052038
3,2,461,21,32,1.70195096905809,2,1.03653463500086,1,0.229266152950004
3,2,462,13,14,3.90439157001674,2,0.246663017896935,-1,0.0327677429886535
3,2,463,27,19,2.70297519594897,3,0.204257269972004,-1,0.0169249778846279
3,2,464,29,35,2.11904678097926,2,0.222246541059576,1,0.0169323050649837
3,2,465,29,29,3.48720850807149,2,0.459596832981333,1,0.0595068560214713
3,2,466,18,20,2.55285136797465,2,0.326941780978814,-1,0.0169548719422892
3,2,467,14,19,3.48721526900772,2,0.120153084979393,-1,0.0169196400092915
3,2,468,4,4,0.934462944976985,3,0.792100320919417,1,0.027556097949855
3,2,469,6,7,1.68523565900978,3,0.23070817196276,1,0.0568338999291882
3,2,470,5,6,2.15247529698536,3,0.95790409098845,1,0.0340407049516216
3,2,471,16,18,1.61855353997089,3,0.874513334943913,1,1.35408859094605
3,2,472,25,24,1.43502406298649,3,0.63832857995294,-1,0.407818524050526
3,2,473,29,34,1.96894518297631,3,0.48404151503928,1,0.0169495599111542
3,2,474,17,28,4.78872848802712,1,1.43580532597844,1,0.0169194820336998
3,2,475,25,36,3.7208692249842,2,0.526889374945313,-1,0.0771682390477508
3,2,476,11,12,1.68548396497499,3,0.28205970604904,-1,1.16978206206113
3,2,477,11,16,2.50285814201925,3,0.70001836202573,1,0.0824376830132678
3,2,478,26,25,1.68525477300864,2,0.601459102006629,1,0.0280487169511616
3,2,479,4,4,0.91778063797392,3,0.453299698070623,1,0.0216260739834979
3,2,480,12,19,2.20250954502262,2,0.906792900059372,-1,0.224928434938192
4,2,241,26,24,7.7928087329492,2,3.86341919284314,-1,2.63629888999276
4,2,242,5,6,3.27103259507567,3,1.17842900496908,-1,1.66179205197841
4,2,243,16,27,8.19252551416866,2,1.51835551089607,1,0.370424159104005
4,2,244,11,17,6.3070567951072,2,1.66234801406972,-1,1.60587289789692
4,2,245,10,16,6.30704603204504,2,1.13650249992497,-1,0.379611399956048
4,2,246,16,25,5.72309767291881,2,0.929543652106076,-1,0.526012815069407
4,2,247,24,38,4.85545103996992,1,1.48312196484767,1,0.58399844286032
4,2,248,16,27,6.84092253702693,2,2.14158165291883,1,1.24952677218243
4,2,249,7,9,3.63741152989678,3,1.3656381231267,-1,0.376959949964657
4,2,250,16,17,9.07679108693264,1,1.37419961299747,-1,0.577493889024481
4,2,251,4,4,1.3682275400497,3,1.01516603701748,-1,0.705648669973016
4,2,252,11,15,4.65525697590783,3,0.964919813908637,-1,0.153047326020896
4,2,253,6,7,3.50399857899174,3,2.39824702008627,-1,0.749830910935998
4,2,254,21,37,5.65636562509462,1,0.936473620124161,1,0.164613988017663
4,2,255,16,26,2.28589084511623,1,0.807218726025894,-1,0.335992402164266
4,2,256,16,28,2.10242284997366,1,0.841721930075437,-1,0.115261930972338
4,2,257,13,17,6.09015883295797,2,1.02589852805249,-1,0.578113474883139
4,2,258,13,18,7.47499590786174,1,1.34490937995724,-1,1.3968880160246
4,2,259,10,15,4.73864667490125,3,1.21108162309974,-1,0.325066251913086
4,2,260,23,29,2.08580348500982,1,0.688158189877868,-1,0.422128930920735
4,2,261,13,15,6.04010431212373,2,1.1526172098238,-1,0.339884700020775
4,2,262,9,13,5.15574491186999,2,0.91980406595394,-1,0.31761510996148
4,2,263,29,39,2.36940663005225,1,0.864968738052994,1,0.440945815993473
4,2,264,16,20,7.45830852002837,2,0.968956447206438,-1,0.434878109022975
4,2,265,22,26,8.62627613497898,2,0.902847341028973,-1,0.765548376133665
4,2,266,5,5,2.51949740992859,3,0.873649260029197,-1,0.280529467156157
4,2,267,16,28,5.13919769693166,1,0.89591915695928,-1,0.10159494006075
4,2,268,15,25,5.9064396279864,1,0.878991381032392,1,0.359564379090443
4,2,269,29,40,3.35380866797641,1,0.96605103299953,1,0.280024932930246
4,2,270,4,4,1.15137862204574,3,0.845596028026193,-1,0.310714145889506
4,2,271,10,14,5.92323068506084,2,1.06616024603136,-1,0.449977177893743
4,2,272,22,28,3.15357637498528,1,0.857976698083803,-1,0.5943850830663
4,2,273,20,38,6.9076503359247,2,0.930146945174783,1,1.37577305687591
4,2,274,26,31,4.43830777704716,1,0.882729392964393,-1,0.505880930926651
4,2,275,4,4,1.48507622187026,3,1.24659534008242,-1,0.51179876900278
4,2,276,10,12,4.50501706614159,3,0.842633871128783,-1,0.274272246053442
4,2,277,5,5,3.0534480039496,3,0.973259346093982,-1,0.264561342075467
4,2,278,6,6,2.75311325793155,3,1.12285279808566,-1,0.406491483096033
4,2,279,24,23,12.1301638348959,1,1.2530017811805,-1,0.70700045581907
4,2,280,20,25,9.4771638030652,1,0.989383231149986,-1,0.608472623862326
4,2,281,25,19,9.427129636053,1,1.0546138510108,-1,0.286820414010435
4,2,282,18,18,2.73645177506842,2,1.73490630090237,-1,0.33126982790418
4,2,283,21,26,4.88881549495272,2,1.25868144608103,1,0.306410250021145
4,2,284,25,35,2.30263363290578,2,0.368336986051872,1,0.460426134057343
4,2,285,22,34,2.83654421311803,2,1.32742752786726,-1,0.309235400054604
4,2,286,11,11,4.62188648199663,3,1.03884204803035,-1,0.464264698792249
4,2,287,4,4,1.31812710594386,3,0.874997583916411,-1,0.402422770857811
4,2,288,29,36,7.8420896360185,1,1.68015006696805,-1,0.374616699991748
4,2,289,26,36,6.22362995496951,2,1.61550076515414,1,0.53704918990843
4,2,290,21,27,2.56953474297188,3,3.67830484686419,1,1.46539489203133
4,2,291,28,26,11.9132419999223,1,1.92298371996731,-1,1.27850475395098
4,2,292,7,7,4.4216965730302,3,0.971436353866011,-1,0.487915748963133
4,2,293,24,13,6.04003284010105,1,1.57615703903139,-1,0.25005167000927
4,2,294,4,7,6.47388662002049,3,1.15120797790587,1,0.337780657922849
4,2,295,29,26,15.1501551149413,3,3.39106462011114,1,1.43909935280681
4,2,296,4,4,1.55182178900577,3,0.833972767926753,-1,0.857840467942879
4,2,297,18,17,7.34155579493381,2,1.25462991301902,-1,0.65398992295377
4,2,298,17,18,5.00556357298046,1,3.81476729596034,-1,0.470239866059273
4,2,299,20,26,1.80202131089754,3,0.918469080002978,-1,1.17213074001484
4,2,300,16,26,16.401519356994,1,1.25213209004141,1,0.131429849890992
4,2,301,22,18,4.90550308511592,2,2.25616244995035,-1,0.926010570954531
4,2,302,17,17,6.24027364887297,3,1.13984996988438,1,0.0169576019980013
4,2,303,7,7,2.00230860500596,3,0.843242794042453,-1,0.628599156159908
4,2,304,4,4,1.01788456295617,3,0.984448296017945,-1,0.403057660209015
4,2,305,11,15,7.69188209716231,3,0.822006419999525,-1,0.255692510865629
4,2,306,24,15,23.5093805929646,1,0.553955928888172,-1,0.49465550808236
4,2,307,23,16,4.1713719998952,1,1.14118200284429,-1,0.28196662501432
4,2,308,22,25,8.3258860099595,2,3.26638157712296,1,4.0559627879411
4,2,309,24,25,8.42595214396715,1,1.66682560811751,-1,0.0172941868659109
4,2,310,19,16,6.25699026486836,2,1.02773748710752,-1,0.0680538981687278
4,2,311,4,4,0.884331365115941,2,7.8172703050077,1,2.30767117696814
4,2,312,5,5,1.9856455901172,3,0.942052780184895,-1,0.634732278063893
4,2,313,26,27,3.78754830011167,2,1.29889006004669,1,0.769333089934662
4,2,314,7,9,4.08793987706304,3,1.24239220493473,1,0.601318507920951
4,2,315,4,4,2.05236736498773,1,5.21919401804917,-1,9.3133044000715
4,2,316,23,19,8.24254102003761,1,1.11067541409284,-1,0.21233411016874
4,2,317,17,0,9.41046514012851,1,1.98613319010474,-1,0.852318897843361
4,2,318,18,16,7.45835513994098,1,2.47386104497127,-1,0.671814227011055
4,2,319,29,16,21.3903604801744,2,0.840916780987754,-1,0.28250447101891
4,2,320,27,35,2.6196441850625,2,3.01806710287929,1,1.0800970280543
4,2,321,21,28,3.12014663498849,2,2.69114399282262,1,4.11998461117037
4,2,322,25,28,4.10481424513273,2,1.3594569878187,-1,0.361987687880173
4,2,323,29,26,14.8831669820938,1,1.40995750692673,1,0.307721335906535
4,2,324,19,18,1.83550424315035,2,0.975706120021641,1,0.31409422098659
4,2,325,22,26,1.80202081194147,2,1.06206743209623,-1,0.230354107916355
4,2,326,21,35,4.42165004997514,2,1.89777060807683,-1,1.11131564504467
4,2,327,29,30,2.7698179569561,2,0.821448827860877,-1,0.366089744959027
4,2,328,29,28,1.96894330717623,2,1.32977614505216,-1,0.0942416409961879
4,2,329,6,6,3.70417072298005,3,1.45710859284736,-1,0.273503081873059
4,2,330,16,19,7.37478891503997,3,1.09815528988838,-1,0.111327424878255
4,2,331,15,25,2.46947064693086,2,1.20997034804896,-1,0.38043946493417
4,2,332,17,25,1.58520314400084,2,0.85961717995815,1,0.0169617698993534
4,2,333,22,20,5.8065115720965,2,0.96656956593506,-1,0.0583681259304285
4,2,334,8,7,3.3037099048961,3,0.890276748221368,-1,0.0488735700491816
4,2,335,18,18,1.88536187796853,2,1.00046851788647,-1,0.201284971088171
4,2,336,15,21,7.72526285098866,3,0.938082301057875,-1,0.511298497905955
4,2,337,17,27,2.602914103074,3,1.00480807409622,1,0.495202037040144
4,2,338,8,12,3.97114769485779,3,1.04860926815309,1,0.0551888830959797
4,2,339,4,4,0.967751317191869,3,1.69416303606704,-1,1.2124770579394
4,2,340,4,4,1.01790533517487,3,1.03487717290409,-1,0.306744036031887
4,2,341,18,24,5.32258259598166,2,1.26038613496348,-1,0.748582375934348
4,2,342,23,18,9.19349944288842,3,1.02294821594842,1,0.10265178186819
4,2,343,29,18,12.7308004850056,3,1.4925589049235,1,1.12121060490608
4,2,344,22,25,1.60180680593476,2,1.19032853399403,-1,0.0169167930725962
4,2,345,29,35,3.48728528199717,2,1.09539883001707,1,0.157855896046385
4,2,346,22,32,2.11905211606063,2,0.775829435093328,1,0.0168711340520531
4,2,347,11,18,3.15353400213644,3,0.970838020090014,1,0.0170452049933374
4,2,348,16,25,16.4682158869691,2,0.917233957909048,1,2.60893360595219
4,2,349,8,26,10.0945201069117,2,1.99998836801387,1,0.393051461782306
4,2,350,7,7,4.00449338601902,3,0.989782240008935,-1,1.24109092378058
4,2,351,11,26,25.7785259550437,2,1.31332689197734,-1,1.71221301495098
4,2,352,17,25,16.8353382779751,2,1.07356365188025,1,0.929432332050055
4,2,353,5,5,1.51833811495453,3,2.23605003184639,-1,0.139590995153412
4,2,354,29,27,7.32478860486299,3,0.994606020860374,1,0.0615050860214978
4,2,355,23,35,2.25253029004671,3,1.8462374699302,-1,0.254419530974701
4,2,356,27,30,1.93557366495952,2,0.966817194130272,1,0.170272869989276
4,2,357,11,25,31.9352901729289,2,1.02269690809771,-1,0.176160122966394
4,2,358,20,28,8.94335469882935,2,1.08803918003105,1,0.110975360963494
4,2,359,18,26,45.0998080109712,1,1.12356130895205,-1,0.0169161269441247
4,2,360,7,25,16.31800084305,1,1.18935556593351,-1,1.17610761406831
4,2,361,5,4,1.51837983285077,2,3.97388920001686,-1,0.886507532093674
4,2,362,22,18,3.15352008398622,2,4.0542355410289,-1,0.378230998059735
4,2,363,23,25,2.16915263794363,2,13.5807884791866,-1,1.15340012894012
4,2,364,8,8,2.66970022511669,3,0.955441907979548,-1,0.120064747985452
4,2,365,29,15,5.90660412795842,2,1.10257216193713,-1,0.0834154170006514
4,2,366,16,26,11.1290421630256,3,1.04111121478491,-1,0.522220685845241
4,2,367,29,33,12.2803093919065,3,1.04385018022731,1,0.829707033000886
4,2,368,16,24,4.88868817104958,2,1.69427139288746,-1,0.268091512145475
4,2,369,11,16,5.27241301094182,3,0.782506590010598,-1,0.914097631815821
4,2,370,19,22,10.7452367281076,3,1.00689803203568,1,0.416806096909568
4,2,371,16,21,10.0612540470902,2,2.54274365003221,-1,0.281297432025895
4,2,372,10,13,4.77196958498098,3,1.04588047903962,-1,0.422876582946628
4,2,373,25,16,25.8619717129041,1,1.31854181294329,-1,0.531163559993729
4,2,374,7,17,20.7563477749936,2,21.7955059111118,-1,0.984260297846049
4,2,375,26,18,29.4993121349253,2,18.7775229900144,1,4.01697494392283
4,2,376,22,23,11.4626918158028,2,2.13432932295837,-1,0.378345218021423
4,2,377,29,25,12.8308636760339,1,1.22911515086889,-1,0.581048494903371
4,2,378,19,25,11.8631674149074,1,4.62563833687454,-1,0.975706409895793
4,2,379,22,36,2.18575374106877,1,0.939484826056287,1,0.496705841040239
4,2,380,22,16,6.67407401301898,1,0.883027780102566,-1,1.2102492491249
4,2,381,4,4,2.68640891788527,3,0.905260625993833,-1,4.70292036607862
4,2,382,21,0,20.8230692059733,1,4.06529657309875,-1,0.270509731024504
4,2,383,22,19,9.47716273297556,1,1.15919237490743,-1,0.769857330946252
4,2,384,23,28,10.4282025098801,1,2.64354697009549,-1,1.07477143593132
4,2,385,4,4,1.80210633180104,3,1.05225013312884,-1,0.300242641940713
4,2,386,23,15,11.1623552551027,2,1.09781695599668,-1,0.744578210869804
4,2,387,12,17,6.92440780904144,2,0.993119246093556,-1,0.545915539842099
4,2,388,18,26,2.6029778230004,2,2.9824481299147,1,1.67977972817607
4,2,389,13,21,24.2768403030932,1,0.942016976885498,1,1.3380426929798
4,2,390,29,35,2.23582066502422,2,0.907879692967981,-1,0.875261697918177
4,2,391,23,36,1.61847826978192,2,0.832166110863909,-1,0.129478062968701
4,2,392,12,25,4.32146379491314,2,0.969700655899942,1,0.0375824901275337
4,2,393,13,15,6.94108775700442,2,1.21846654592082,-1,0.10716282017529
4,2,394,22,25,31.4347930080257,1,1.58134390297346,-1,0.487090047914535
4,2,395,27,26,9.39379535499029,1,1.11211105808616,-1,0.439034929964691
4,2,396,28,25,7.95882149110548,1,0.892304394859821,-1,0.30584733793512
4,2,397,18,21,24.2267082929611,2,1.11841990007088,-1,0.395310562103987
4,2,398,16,15,6.15681683598086,1,1.66686864895746,-1,0.417887407820672
4,2,399,11,13,6.20686138304882,3,0.890659225871786,1,0.306104741059244
4,2,400,24,25,2.16909664310515,1,1.03346474398859,-1,0.089463101932779
4,2,401,4,4,2.00228922790848,3,1.12845449591987,-1,0.638117491034791
4,2,402,28,36,2.80318042705767,2,1.19403584511019,1,0.365181037923321
4,2,403,23,36,1.75207405490801,2,0.783316873013973,1,0.345923712942749
4,2,404,11,10,4.5383780261036,3,0.983551013050601,-1,0.392555867088959
4,2,405,26,999,17.3192022480071,1,1.91262284107506,-1,0.508903939044103
4,2,406,16,25,3.60404597991146,1,0.838338457047939,-1,0.0169183919206262
4,2,407,25,28,22.0243997981306,1,1.26595325791277,1,3.81714165280573
4,2,408,14,28,7.49163686600514,1,2.17319833301008,1,0.174011688912287
4,2,409,19,25,3.35379938804545,2,1.34469555295072,1,0.30822441005148
4,2,410,7,7,4.83879699907266,3,0.809981318190694,-1,1.09921123390086
4,2,411,5,5,2.10241046012379,3,0.827584190061316,-1,0.0934975778218359
4,2,412,22,16,10.9954648378771,2,0.90958509594202,-1,0.220511885825545
4,2,413,11,18,6.92440946004353,2,0.964066978078336,1,1.4319510050118
4,2,414,4,4,1.41827066009864,3,1.02750164782628,-1,0.205569732002914
4,2,415,25,25,11.0956140430644,1,0.852032712893561,-1,0.0169777180999517
4,2,416,9,31,14.9331576179247,1,1.56828520307317,1,1.46602094802074
4,2,417,27,32,3.53727372689173,2,1.02532209805213,1,0.137551930965856
4,2,418,4,4,1.26810897607356,3,0.982933551073074,-1,0.129791110986844
4,2,419,13,24,15.5005236750003,3,0.868613181170076,-1,0.404716470045969
4,2,420,22,31,5.15572465979494,2,0.856640190118924,1,0.0169018600136042
4,2,421,7,12,5.43939037318341,3,0.864045500988141,1,0.0968738000374287
4,2,422,14,25,10.8453567621764,1,2.04752652905881,-1,0.486293649999425
4,2,423,19,21,8.14241100498475,1,1.92414536001161,-1,1.05532969208434
4,2,424,11,26,9.36042529484257,2,0.887245061807334,1,0.11129252309911
4,2,425,11,26,11.9632917919662,2,1.34497706708498,-1,1.08583492203616
4,2,426,29,27,2.65297817299142,2,0.826615358935669,1,0.0440951660275459
4,2,427,16,23,6.30703159701079,2,0.982258975040168,-1,0.224790968000889
4,2,428,11,23,10.2447251798585,2,1.0503018880263,-1,0.233661089092493
4,2,429,4,4,1.98561487998813,2,9.02211762778461,-1,0.302551471861079
4,2,430,27,27,23.3758987949695,1,1.18611762695946,-1,0.403523684013635
4,2,431,28,38,3.58735560998321,2,1.0745490801055,1,0.233993330039084
4,2,432,28,999,2.50287295482121,2,3.37776442780159,1,0.275470098946244
4,2,433,7,12,9.31039531296119,3,0.965460281120613,1,0.31107689300552
4,2,434,18,999,20.0222012449522,1,1.22967405593954,-1,0.535084276925772
4,2,435,22,21,6.77424679300748,3,2.20041254092939,1,0.761205449933186
4,2,436,26,18,9.62743886816315,1,1.04692504298873,-1,0.239684176165611
4,2,437,29,25,1.76866910699755,1,1.2278164899908,-1,0.211837973911315
4,2,438,16,25,3.18696885299869,3,1.00033107004128,1,0.362068627029657
4,2,439,20,36,1.95232575200498,2,0.827702987007797,-1,0.237920100800693
4,2,440,29,34,1.65182724315673,2,1.87676469818689,1,0.105824275873601
4,2,441,22,24,1.88544379500672,2,1.01855017803609,1,0.100155052961782
4,2,442,6,6,1.90218565310352,2,1.78486935212277,1,0.307085490087047
4,2,443,27,25,10.6118136350997,2,1.22210522508249,-1,0.0633242228068411
4,2,444,8,9,4.18795834504999,3,1.32579775503837,1,0.538903157925233
4,2,445,24,16,4.48831593804061,2,1.13110747397877,-1,0.193131712032482
4,2,446,27,15,18.0198134970851,1,0.86617558519356,-1,1.04200850706547
4,2,447,4,4,3.40402215509675,3,1.10352421086282,-1,0.374236855888739
4,2,448,5,5,4.30493870307691,3,0.847206484060735,-1,0.271595027996227
4,2,449,22,25,5.77314385492355,1,5.59968807687983,-1,0.30857663997449
4,2,450,16,14,7.30818068305962,1,1.81981199700385,-1,0.059580260887742
4,2,451,20,25,1.93553600995801,2,0.763389030005783,1,0.0169124000240117
4,2,452,4,4,1.75204074801877,3,0.982053803978488,-1,0.281483793165535
4,2,453,7,6,2.46947650215589,3,0.89437511516735,-1,0.885403497843072
4,2,454,15,25,2.80313590704463,2,1.01395719009452,-1,0.0709830841515213
4,2,455,11,16,2.50280281296,2,0.90881840698421,-1,0.907159130088985
4,2,456,4,4,1.51837930083275,2,8.51881572999991,-1,2.49253332801163
4,2,457,7,9,2.90330324997194,3,0.93714311090298,-1,0.597666810965165
4,2,458,4,4,1.50168650620617,3,0.832336314022541,-1,0.169115454889834
4,2,459,7,9,3.08679930004291,3,0.940044918796048,-1,0.0973665760830045
4,2,460,17,18,3.70412933710031,2,0.861659984104335,-1,0.374614802887663
4,2,461,11,18,3.35373076004907,2,0.818902318831533,1,0.293232046067715
4,2,462,9,13,4.22133625694551,3,0.919139178004116,1,0.211473169038072
4,2,463,29,35,1.8855023952201,2,0.856944072060287,1,0.18504106788896
4,2,464,24,39,1.73534061689861,2,0.9930217389483,1,0.204236452933401
4,2,465,14,17,1.75202965689823,2,0.848499946063384,-1,0.281014626147225
4,2,466,12,17,1.78534598601982,2,0.501133647980168,1,0.236185980960727
4,2,467,12,16,1.63523270492442,2,0.887447478948161,-1,0.0302658900618553
4,2,468,4,4,1.10127179999836,3,0.583496684907004,1,0.946704786038026
4,2,469,21,19,3.78771896194667,3,1.16946286498569,-1,0.370890866033733
4,2,470,29,35,2.26930426503532,2,0.976704081054777,1,0.299352762987837
4,2,471,4,4,1.08462316705845,3,0.816367021994665,1,0.274372142972425
4,2,472,22,14,1.60179655184038,3,1.0227776709944,-1,0.623085410799831
4,2,473,11,29,3.25368562480435,3,0.749225893057883,-1,0.704118380090222
4,2,474,13,17,2.92000490287319,2,0.800359532935545,1,0.545740694971755
4,2,475,19,21,1.91887732502073,2,0.794204997830093,1,0.236777242971584
4,2,476,29,38,2.03567818994634,2,0.894555405015126,1,0.72575696092099
4,2,477,15,27,1.70196040999144,3,0.885599951958284,1,0.429248956032097
4,2,478,16,26,2.55275396094657,2,0.850314700044692,-1,0.387330928118899
4,2,479,14,17,1.75206491095014,2,0.639867756981403,1,0.335278334096074
4,2,480,16,29,1.53512829705141,2,1.5314116680529,1,0.263152346946299
5,2,241,29,999,5.55647588800639,1,2.08349571400322,-1,2.39493274502456
5,2,242,26,9999,23.3928268370219,1,1.17181231197901,-1,1.29598263301887
5,2,243,29,30,5.12280319002457,1,1.40882342890836,1,2.96131868602242
5,2,244,16,17,2.20263457798865,2,1.15826047596056,1,1.1628082949901
5,2,245,11,16,2.48633194202557,2,3.62882920401171,-1,0.947414233000018
5,2,246,22,28,1.88561974500772,2,1.8377873810241,-1,0.349082431988791
5,2,247,4,4,1.13568150089122,3,1.02030072594061,-1,1.62317955598701
5,2,248,6,6,2.1191765719559,3,1.04114522598684,1,1.21694444399327
5,2,249,13,20,2.06897616002243,2,1.02479471301194,1,0.385579608962871
5,2,250,27,40,1.55177112005185,3,1.32018460100517,1,1.62199071096256
5,2,251,7,12,2.2024918210227,2,1.08377766504418,1,0.275376406963915
5,2,252,23,29,1.96901965793222,2,2.62139256799128,-1,0.509096910944209
5,2,253,23,25,1.95219156402163,2,1.33151073590852,-1,0.655696380068548
5,2,254,22,20,2.23589858296327,2,0.891346020041965,-1,0.0408532989677042
5,2,255,6,7,1.4518486749148,2,1.41574297600891,-1,0.983583513065241
5,2,256,23,22,2.08567019505426,3,0.849352175020613,1,0.30410144594498
5,2,257,26,27,2.41926889296155,3,0.919034690945409,1,0.275540255941451
5,2,258,29,30,3.87106069503352,2,0.7691979840165,1,0.276415470056236
5,2,259,13,19,1.6351593650179,2,1.04409386601765,1,1.88359177310485
5,2,260,13,16,1.45161673100665,2,1.85348014999181,1,1.17268915800378
5,2,261,25,27,1.73525287001394,2,1.08445200801361,-1,0.633970202994533
5,2,262,16,29,2.03560431697406,2,0.877089911955409,1,0.427420606953092
5,2,263,16,26,3.33700271998532,3,1.36465550004505,-1,0.67126782797277
5,2,264,13,20,1.98545615898911,2,1.42719011008739,-1,0.48407867597416
5,2,265,23,20,1.11795548198279,3,0.793466337956488,1,0.189105057041161
5,2,266,29,30,2.38604710297659,2,1.09879550198093,1,1.24045743094757
5,2,267,18,20,1.43498608702794,2,0.6287540870253,-1,1.23876203701366
5,2,268,29,24,1.81871519295964,2,1.18148539506365,1,0.574763979064301
5,2,269,16,20,1.51842594600748,2,1.06469840800855,1,0.0648276499705389
5,2,270,24,30,1.25158662791364,2,1.63785014091991,1,0.285129838972352
5,2,271,29,40,1.33493396302219,2,0.958594185998663,1,0.186569991055876
5,2,272,23,30,1.43497768195812,2,0.91922009002883,1,0.596282806014642
5,2,273,15,24,2.31924177799374,2,0.873023782973178,1,1.096346948063
5,2,274,21,25,1.93551562004723,2,1.16514259797987,-1,1.81674772303086
5,2,275,16,19,2.1858183669392,3,0.586049280012958,1,1.73162435705308
5,2,276,18,20,1.68523512803949,2,0.870722844963893,1,0.277095371042378
5,2,277,11,16,2.05230131093413,3,0.840751769021153,1,0.346130660036579
5,2,278,7,7,2.58643766702153,3,2.69700286805164,-1,0.420198242994957
5,2,279,23,20,1.46837689797394,3,1.08939995500259,1,0.246916551026516
5,2,280,11,18,2.0023404849926,2,1.06992200703826,1,0.276987096993253
5,2,281,19,24,1.50167983002029,2,2.64802640490234,-1,0.966127555933781
5,2,282,25,28,2.46958308701869,2,0.968941421015188,-1,0.548057086067274
5,2,283,19,30,1.88546764396597,2,0.768663302995265,1,0.346689921920188
5,2,284,11,16,1.46840246790089,2,0.787167439935729,1,0.573616129928268
5,2,285,19,19,2.16905414499342,3,1.073674893938,1,0.128845295985229
5,2,286,12,14,1.76866903202608,2,0.976791465072893,-1,0.72487650194671
5,2,287,4,4,1.70198632206302,2,1.04260628204793,-1,0.356209918041714
5,2,288,5,5,1.41832919197623,3,0.753950846963562,-1,0.614677019999363
5,2,289,9,10,1.33490304998122,3,0.907843952998519,1,0.897018122952431
5,2,290,18,19,2.98674785997719,2,1.34416180092376,-1,2.67660095600877
5,2,291,4,4,1.16816514998209,3,0.757147080963477,-1,0.330012804013677
5,2,292,4,4,1.03463019209448,3,1.47448498895392,-1,0.327497838996351
5,2,293,16,22,1.55175758502446,2,1.50312201702036,1,0.476034199004062
5,2,294,22,35,1.53514720697422,2,1.54283074801788,-1,1.32943269296084
5,2,295,22,26,2.55281168594956,2,0.914873720961623,1,0.984428460942581
5,2,296,7,7,1.88553573901299,3,1.84615735604893,-1,0.436716565978713
5,2,297,4,4,2.17016999109183,3,0.881930373026989,-1,1.07975293602794
5,2,298,4,4,1.10138339700643,3,0.654584537958726,-1,0.759792200056836
5,2,299,7,10,1.86877847299911,3,2.60182405402884,1,0.593844020972028
5,2,300,16,20,1.76873786002398,2,0.902125981054269,1,0.300892040948384
5,2,301,20,25,2.06900999695063,2,0.83039368793834,-1,0.303150080959313
5,2,302,25,30,1.25143103208393,2,0.909583986969665,1,0.604190199985169
5,2,303,14,22,1.65193024009932,3,0.833554117009044,-1,0.432922214036807
5,2,304,13,13,1.68517479498405,2,0.972512153093703,-1,0.383984188083559
5,2,305,10,15,1.618500452023,3,1.43499453202821,-1,0.611415831022896
5,2,306,14,15,1.2681459239684,3,0.929040660033934,-1,0.423203952959739
5,2,307,16,24,1.28478730097413,3,0.81117235601414,-1,0.411903521977365
5,2,308,21,27,2.0022848569788,2,1.07972556306049,1,0.527124286047183
5,2,309,19,22,1.80204770294949,2,1.93495767901186,1,1.18523735005874
5,2,310,29,25,1.55179089005105,1,8.32998152193613,-1,0.781597823021002
5,2,311,22,30,1.96895493706688,1,1.15935872402042,1,0.970300699002109
5,2,312,22,25,2.23588819103315,2,1.40730996499769,-1,1.78302022605203
5,2,313,15,17,1.51838992000557,3,0.977655423921533,-1,0.604539650026709
5,2,314,22,27,2.40267994906753,3,1.57135981298052,1,0.933004142018035
5,2,315,10,10,1.71857456502039,3,0.73143770894967,1,0.600353856920265
5,2,316,21,21,2.15250054001808,3,0.992949509993196,-1,0.460437915986404
5,2,317,22,23,2.20255078491755,2,1.09448147495277,-1,0.491850517923012
5,2,318,21,24,1.88557087001391,2,0.818631517002359,-1,0.307706590974703
5,2,319,4,4,1.41834373993333,3,0.637863968033344,-1,0.319478812045418
5,2,320,25,22,1.3850051650079,3,1.14597010600846,-1,2.05469444894698
5,2,321,18,24,1.66853155288845,2,1.3784903549822,-1,1.18974529800471
5,2,322,7,9,1.63526853208896,3,1.10948153107893,1,1.97875907400157
5,2,323,29,32,2.15245171496645,2,4.78281812998466,-1,1.94191351009067
5,2,324,7,9,1.53515019791666,3,0.633266057004221,-1,1.36269942391664
5,2,325,4,4,1.08460706297774,3,0.331207262934186,-1,0.24083734001033
5,2,326,11,11,1.36823895503767,3,0.900236682966352,-1,0.38583178492263
5,2,327,21,12,2.46941885608248,2,2.08869106601924,-1,0.693969284067862
5,2,328,29,26,1.93550904106814,3,0.912209396017715,-1,0.990549064008519
5,2,329,18,15,1.5017144420417,3,1.18628603999969,-1,1.97233896702528
5,2,330,26,26,1.86876746499911,2,0.870738129946403,1,0.359119010041468
5,2,331,14,24,2.16911373799667,2,1.38695753994398,-1,0.572778234956786
5,2,332,23,20,1.60182561003603,1,2.40365339000709,-1,0.467717959079891
5,2,333,16,20,1.68524386791978,2,0.720285097020678,-1,0.460714624961838
5,2,334,22,24,1.53508169297129,2,0.503580487915315,-1,0.0852156809996814
5,2,335,12,12,1.93558617995586,3,0.929367011995055,-1,0.0942901560338214
5,2,336,7,9,1.30153504898772,3,0.54950247798115,-1,0.825003748992458
5,2,337,16,16,2.83653040404897,3,1.20639295806177,-1,0.23231116507668
5,2,338,29,28,2.13592897297349,2,0.928161581978202,-1,0.261382907978259
5,2,339,8,9,1.5184658120852,3,1.09324321197346,-1,0.258604433969595
5,2,340,22,17,1.5017430629814,3,1.75597348599695,-1,0.565887031028979
5,2,341,11,17,1.70189836004283,2,1.03891282400582,-1,0.390913743060082
5,2,342,16,20,1.86875607504044,2,0.896815194981173,1,0.286960565019399
5,2,343,27,28,2.15246588096488,2,0.981064344989136,1,0.296258526970632
5,2,344,11,12,1.73529177997261,2,0.967281813034788,-1,0.994186110096052
5,2,345,27,20,1.43497458589263,1,4.07444475602824,-1,0.38330663391389
5,2,346,22,20,1.2513804200571,2,1.64240342390258,1,1.67518274800386
5,2,347,29,30,1.58520900807343,2,1.25528651906643,1,2.14136461005546
5,2,348,5,5,1.26811598299537,3,0.637141036917455,-1,0.495078890002333
5,2,349,24,26,2.76982869999483,3,1.55411464499775,-1,1.69245808396954
5,2,350,15,18,1.58512262208387,2,3.31439090205822,-1,0.734516910975799
5,2,351,18,18,1.45168800500687,2,0.746579560916871,-1,0.807029991061427
5,2,352,26,24,2.01892326702364,2,0.841552347992547,1,0.649377973983064
5,2,353,8,9,1.66856064798776,2,1.32279799005482,-1,1.41446004610043
5,2,354,4,4,1.21808112203144,3,0.615836014971137,-1,0.360231650993228
5,2,355,4,4,1.10133860609494,3,0.555970235960558,-1,0.224742577993311
5,2,356,16,20,1.86878792010248,3,0.871411897940561,-1,0.254992533940822
5,2,357,9,12,1.25146363105159,3,1.0927441760432,-1,0.387822085991502
5,2,358,19,25,1.78534713305999,2,0.622766437008977,1,0.511795139987953
5,2,359,19,25,1.23472596297506,2,0.9164357179543,1,0.360519106965512
5,2,360,16,24,2.25252769503277,2,0.913648663088679,-1,0.582857365952805
5,2,361,23,26,2.90324721497018,2,2.25930850103032,-1,1.04917262704112
5,2,362,17,17,2.23595019499771,3,1.17516083002556,1,0.507338592899032
5,2,363,11,11,1.81872120790649,3,0.839607817935757,-1,0.239176610019058
5,2,364,5,5,1.25140624400228,3,0.804099773988128,-1,0.244474282953888
5,2,365,23,24,1.8520890600048,2,0.839122725068592,-1,0.696587265003473
5,2,366,4,4,1.15131924906746,3,0.552093807957135,1,1.12459962302819
5,2,367,27,34,4.92215383599978,2,0.977467400953174,-1,0.396454700967297
5,2,368,16,22,2.70309615205042,2,0.652731265989132,-1,1.74115165008698
5,2,369,10,16,1.63519772503059,2,1.10391206503846,-1,0.525872841943055
5,2,370,13,12,1.85208846000023,2,0.959487068001181,-1,0.2675403439207
5,2,371,26,25,1.53506091295276,2,0.767180955037475,-1,0.449339171987958
5,2,372,23,24,1.38489816500805,2,0.817820301046595,1,0.203115180949681
5,2,373,29,25,1.78535371110775,2,0.527575967949815,-1,1.16596243798267
5,2,374,28,27,1.63522569299676,2,0.666642713942565,1,0.21056066302117
5,2,375,21,26,1.33486124803312,2,0.449483333039097,-1,1.12292420992162
5,2,376,28,25,2.53617962100543,2,0.616692582960241,-1,0.227118253940716
5,2,377,17,15,1.41831900109537,2,0.785927576012909,1,0.389204230043106
5,2,378,11,10,1.98557008500211,2,0.845201568095945,-1,0.389243660029024
5,2,379,11,11,2.03569687705021,2,0.757064639939927,-1,0.250226023024879
5,2,380,4,4,1.10135267698206,3,0.909950052970089,-1,0.707921072025783
5,2,381,7,6,1.46839513489977,3,0.640782238915563,-1,0.777896140003577
5,2,382,11,12,1.61848903191276,3,0.676282629021443,-1,0.108866369933821
5,2,383,18,23,3.63739567901939,2,0.781667675008066,1,0.776836607023142
5,2,384,29,37,2.18587102205493,2,1.28655464295298,-1,0.253325275029056
5,2,385,10,11,1.5017815149622,2,0.852436876972206,-1,0.44347006699536
5,2,386,5,5,1.65193968999665,3,0.951436633011326,-1,0.274985096999444
5,2,387,17,12,2.58623119001277,2,0.851599869085476,-1,0.162231854978018
5,2,388,5,5,1.18475420202594,3,0.541189147974364,-1,0.642713034991175
5,2,389,11,9,2.28585844195914,3,1.1167713010218,-1,0.369887801003642
5,2,390,17,29,2.00235327007249,2,0.593688059016131,1,0.357369111967273
5,2,391,7,7,1.8688320099609,2,0.834414851036854,1,0.828078677994199
5,2,392,18,20,1.36824610608164,2,0.735399233060889,1,0.452079125097953
5,2,393,16,20,1.41834457800724,2,0.327402019989677,-1,0.22071602800861
5,2,394,4,4,1.28486406698357,3,1.08906575699802,1,0.950468035996892
5,2,395,28,30,1.31816729297861,2,0.502972666989081,1,0.203532995074056
5,2,396,15,20,1.26817286107689,2,0.714091005036607,1,0.25649689999409
5,2,397,20,20,1.05120087706018,2,0.64008972607553,1,0.665079992963001
5,2,398,4,4,1.06787122401875,3,0.517011452000588,-1,0.297412181971595
5,2,399,29,22,2.55290849297307,2,0.433002567035146,-1,0.793417479959317
5,2,400,29,25,1.53513217298314,3,1.12127065507229,-1,0.966696256073192
5,2,401,5,5,1.66861576493829,3,0.539179631974548,-1,0.328399104997516
5,2,402,26,20,1.30148558004294,3,0.885710806935094,-1,0.300056097097695
5,2,403,7,9,1.35154632793274,3,0.81541487108916,-1,0.48035200999584
5,2,404,7,8,1.36823548295069,3,0.738242131890729,-1,0.310318420059048
5,2,405,28,30,1.36824858991895,2,0.875970829976723,1,0.267733718035743
5,2,406,20,29,1.78534682595637,2,0.332648231997155,1,0.0169660049723461
5,2,407,4,4,1.05124981503468,3,0.343870140030049,-1,0.2053879579762
5,2,408,4,4,1.03455984499305,3,0.53403104597237,-1,0.266167358960956
5,2,409,9,10,1.45162903692108,3,0.894012844073586,1,0.348901286022738
5,2,410,12,20,1.60183671000414,3,0.608876609010622,-1,0.146549661061727
5,2,411,6,7,1.86883257993031,3,1.76908267801628,-1,0.697868510964327
5,2,412,22,26,2.33595993299969,2,0.699819023953751,1,0.418797924998216
5,2,413,20,26,1.60179976304062,2,1.42315481894184,1,0.2948159360094
5,2,414,22,26,1.48501026211306,2,0.656318722991273,1,0.0793952950043604
5,2,415,24,30,1.35156321001705,2,0.320532087003812,1,0.150952217984013
5,2,416,6,9,1.65189404704142,3,0.83405376796145,-1,0.130053424974903
5,2,417,22,20,1.55176746100187,2,0.39894154202193,1,0.616084028966725
5,2,418,22,30,1.21806067798752,3,1.23494008998387,-1,0.284205485018902
5,2,419,8,10,1.18469471798744,3,0.626248696004041,1,1.57912404707167
5,2,420,22,24,1.75194156495854,3,0.940796593087725,-1,0.345992304966785
5,2,421,22,26,2.26921653002501,2,1.18097134795971,-1,0.288373065995984
5,2,422,4,4,1.16805937001482,3,0.37807351606898,-1,0.20676207006909
5,2,423,17,20,1.16805572900921,2,0.769097617012449,-1,0.468406353029422
5,2,424,11,18,2.16913271299563,2,0.80719674390275,-1,0.265282287960872
5,2,425,15,19,1.55180320900399,2,0.80228624609299,-1,0.275247266981751
5,2,426,4,4,1.30150910001248,3,0.665180620970204,-1,0.576496199937537
5,2,427,22,27,1.75197853997815,2,0.898211126914248,-1,0.295908676926047
5,2,428,29,30,1.46835293702316,2,0.252082865918055,1,0.228709932998754
5,2,429,29,30,1.6184877079213,2,0.435204942012206,1,0.220349707989953
5,2,430,29,30,1.25140966998879,2,0.41398112103343,-1,0.121386509970762
5,2,431,14,20,1.91889538697433,2,0.319612758001313,-1,0.13310012104921
5,2,432,17,20,1.10130387509707,2,0.291559821926057,-1,0.0660733130061999
5,2,433,7,13,1.90213361091446,2,0.604651374975219,1,0.111854605027474
5,2,434,22,25,1.60181479400489,2,0.398587453993969,-1,0.064040909986943
5,2,435,11,17,1.68526808300521,2,0.426852555014193,1,0.301655382034369
5,2,436,27,20,1.11796724901069,2,0.313825411023572,-1,0.399294216069393
5,2,437,11,17,1.71869636303745,1,1.03939869394526,1,0.384379304945469
5,2,438,27,25,2.13576416298747,2,0.375491674058139,-1,0.460345200030133
5,2,439,24,20,2.01894248696044,2,1.22787816997152,-1,0.30213043699041
5,2,440,25,20,1.10128065303434,2,0.533091837074608,-1,0.395065017975867
5,2,441,13,16,1.81871073599905,2,0.487655900069512,1,0.646684192004614
5,2,442,4,4,1.134607825079,3,0.332743429928087,-1,0.258875728002749
5,2,443,7,7,1.45165590906981,3,0.31020468508359,-1,1.59709634596948
5,2,444,5,5,1.16805126296822,3,0.155079616000876,-1,0.0406119270483032
5,2,445,16,11,1.98562283092178,2,2.07183566002641,-1,0.164510082919151
5,2,446,17,12,2.31926765700337,2,0.308475537924096,-1,0.323419420979917
5,2,447,24,19,1.61849852907471,2,0.350234596990049,1,0.0431896930094808
5,2,448,4,4,0.96786543505732,3,0.297704355092719,-1,0.016928739962168
5,2,449,26,18,1.70198184496257,2,0.786279258085415,-1,0.301122679025866
5,2,450,29,30,1.68534387100954,2,0.382890366017818,1,0.154940573032945
5,2,451,25,29,1.61849503195845,2,0.256674628006294,1,0.178172213956714
5,2,452,24,30,1.45163297303952,2,0.40607500099577,1,0.401206357055344
5,2,453,20,26,1.55182722501922,2,0.824280044063926,-1,0.20217549696099
5,2,454,24,20,1.40159692498855,2,0.201984204002656,-1,0.0688036161009222
5,2,455,11,20,1.18468340998515,1,1.00369687902275,1,1.70798583002761
5,2,456,21,25,1.51840270799585,1,0.367374892928638,1,0.34726343001239
5,2,457,22,23,1.2013725329889,2,0.41774099401664,1,0.570671093068086
5,2,458,20,20,1.28480321506504,2,0.324152690009214,1,0.328694186056964
5,2,459,19,19,2.16910326806828,2,0.356252157012932,1,0.0338772509712726
5,2,460,24,20,1.23470752907451,2,0.41650250996463,1,0.810854361974634
5,2,461,18,20,2.13573586603161,2,0.724808175000362,1,1.03350946807768
5,2,462,16,19,1.55183183704503,2,0.631445322069339,1,0.0332770850509405
5,2,463,28,24,1.95227129501291,2,0.361032948014326,1,0.0532412000466138
5,2,464,29,25,1.53508632199373,2,0.724092189921066,1,0.0906862409319729
5,2,465,8,9,1.40158121602144,2,0.856589299975894,1,0.0169151499867439
5,2,466,11,12,1.43496275809593,2,0.323327756021172,1,0.0169272819766775
5,2,467,22,19,1.80204306496307,2,0.368385890964419,-1,0.0686573729617521
5,2,468,8,8,1.53504985501058,2,0.293754072976299,1,0.388685785001144
5,2,469,4,4,1.20137716899626,3,0.327889885986224,-1,0.173338284948841
5,2,470,5,5,1.23480896803085,3,0.328730624984019,-1,0.0781685429392383
5,2,471,12,13,1.53513836208731,3,1.51477016799618,-1,0.62317829602398
5,2,472,16,20,1.26812011597212,3,1.216413927963,-1,0.121349303051829
5,2,473,4,4,1.15131942299195,3,0.343184132943861,-1,0.0678954740287736
5,2,474,16,20,1.30151619692333,2,0.913685885025188,1,0.231262131012045
5,2,475,4,4,0.93443252297584,3,0.223984198062681,-1,0.0169882150366902
5,2,476,29,26,1.86876602494158,2,0.742759360000491,-1,0.016914475010708
5,2,477,16,20,1.2180711380206,2,0.267604970023967,1,0.0169113379670307
5,2,478,16,20,1.21815741294995,2,0.263857575017028,1,2.17640308802947
5,2,479,27,22,1.668547376059,2,0.807825765921734,1,0.0410838769748807
5,2,480,10,17,2.75314799498301,2,0.701434893999249,1,0.0168744379188865
6,2,241,8,7,4.52167832502164,3,1.71634342498146,-1,1.26692700292915
6,2,242,28,25,3.88894150499254,2,1.31602310785092,-1,0.875496146036312
6,2,243,17,16,2.93690697010607,2,2.13301338301972,-1,2.07982993801124
6,2,244,7,7,2.00250677601434,3,1.28357961308211,-1,2.29108396521769
6,2,245,4,4,0.951175597030669,3,1.20666709798388,1,0.39321135613136
6,2,246,10,10,2.55295804701746,2,1.34907533694059,1,0.959959608037025
6,2,247,5,5,1.15143396798521,3,0.7767285911832,-1,0.851484254933894
6,2,248,23,24,5.32276833313517,2,1.31672219303437,-1,0.170272997114807
6,2,249,20,20,4.03788050496951,2,1.01462718704715,-1,0.848395759006962
6,2,250,15,18,4.52174845989794,2,1.21052999794483,1,2.25944926706143
6,2,251,4,4,0.901167565956712,3,0.78833800018765,-1,0.334500679979101
6,2,252,23,27,6.90788001799956,1,1.01400116900913,1,0.744582019979134
6,2,253,18,20,4.30483182589523,2,1.12599609489553,-1,0.41188338608481
6,2,254,22,24,4.87213434907608,2,1.22223869990557,1,0.0303271249867976
6,2,255,5,5,1.05117825884372,3,0.791374112013727,-1,0.2995462839026
6,2,256,21,15,4.25463446811773,2,1.06214974704199,-1,0.24622990610078
6,2,257,22,20,4.20470912498422,1,1.45283419289626,-1,0.195600948994979
6,2,258,7,7,2.70314138801768,3,0.381036655046046,1,0.263885078020394
6,2,259,9,9,2.68644704506733,3,1.4209201480262,-1,0.685938988113776
6,2,260,4,4,1.40172225004062,3,1.07370095793158,-1,0.649006610037759
6,2,261,24,21,8.39263464603573,2,2.61646017478779,-1,1.42453676112927
6,2,262,5,5,1.25147780706175,3,0.75751811102964,-1,0.91288647800684
6,2,263,4,4,0.867743557086214,3,0.661707641091198,-1,1.8940883979667
6,2,264,22,25,6.85770161007531,2,1.50763461110182,1,0.0169368330389261
6,2,265,22,28,6.84089615079574,1,0.901527664856985,1,0.0167740848846734
6,2,266,10,999,2.78641670499928,3,1.77554109878838,-1,1.21720071905293
6,2,267,16,13,4.10461534000933,2,1.01977812801488,-1,0.947800992056727
6,2,268,23,24,5.33934398880228,2,1.13798008509912,1,0.63721216795966
6,2,269,29,25,8.07577336812392,1,0.871693826979026,-1,0.254219518043101
6,2,270,16,15,3.62062254315242,2,1.05005766707473,-1,0.0168800270184875
6,2,271,24,27,3.58718947507441,1,0.943646311061457,-1,0.0169594509061426
6,2,272,6,6,1.65183910587803,3,0.740839760983363,-1,0.369826988084242
6,2,273,17,20,3.32030853303149,2,1.21532196784392,-1,0.655900141922757
6,2,274,4,4,0.934540500165895,3,0.859428785042837,-1,1.50681298295967
6,2,275,5,5,1.48500775801949,3,0.962360481033102,1,0.228921442991123
6,2,276,11,9,2.48616385203786,3,0.945887993788347,-1,0.26891933591105
6,2,277,27,24,4.33815667103045,2,2.61091161100194,-1,1.35450643999502
6,2,278,22,24,5.57289991807193,2,1.18162396294065,-1,0.0169235321227461
6,2,279,19,17,3.38710065186024,2,1.08559114090167,-1,0.116758354008198
6,2,280,19,19,4.85549845010974,2,1.02117407089099,1,3.17331814602949
6,2,281,7,7,2.21924637700431,3,0.280422576004639,-1,0.0562992591876537
6,2,282,13,13,3.08680984680541,3,1.2562174370978,-1,0.071700912900269
6,2,283,9,8,1.75203882297501,3,0.682986692991108,-1,0.0346238508354872
6,2,284,25,21,3.95443629613146,2,1.14836321398616,-1,0.0309717208147049
6,2,285,22,20,4.40497663896531,2,1.08879864099436,1,0.0942587461322546
6,2,286,27,21,3.37043307488784,1,0.922062199097127,-1,0.344127390999347
6,2,287,6,7,1.76871528290212,3,0.328750975197181,-1,0.27156381495297
6,2,288,29,27,5.7231047579553,1,1.29972388618626,1,0.0402137951459736
6,2,289,11,12,3.02001318288967,2,1.06131289410405,-1,1.34041954996064
6,2,290,27,14,4.00456378282979,2,2.22394477692433,-1,0.2865714749787
6,2,291,7,7,2.13569465605542,3,0.300254310015589,-1,0.0169248201418668
6,2,292,18,15,4.9722166119609,2,1.60811830288731,-1,0.192195812938735
6,2,293,11,11,3.63730468694121,3,4.30843845498748,-1,0.285766976187006
6,2,294,27,23,2.51941383490339,1,1.3524257580284,-1,0.106856528203934
6,2,295,4,4,0.96782708982937,3,0.264635900035501,-1,0.353439532918856
6,2,296,29,18,7.94216582993977,2,0.930086865089834,-1,1.09622431616299
6,2,297,18,17,5.33932571997866,2,1.28530480293557,-1,0.763241361128166
6,2,298,11,13,3.65414355299436,2,1.22219529305585,1,0.040219027781859
6,2,299,29,21,5.60621025995351,1,1.50172142218798,1,0.411286619957536
6,2,300,20,16,4.57175240805373,2,0.918927418999374,1,0.716816503088921
6,2,301,5,5,1.1180541201029,3,0.329200132982805,-1,0.551922846119851
6,2,302,19,18,4.38821894605644,2,2.72938020597212,-1,1.4192052918952
6,2,303,27,8,6.47390369512141,1,1.96270216302946,-1,3.38856928609312
6,2,304,4,4,1.06786031997763,3,0.389364892151207,1,1.3535891128704
6,2,305,11,9,2.92005845997483,3,1.99264722806402,-1,0.0245741500984877
6,2,306,29,19,5.2392182550393,2,1.78242362011224,-1,0.289180170046166
6,2,307,18,15,3.80422450508922,2,1.2229952882044,-1,0.0169420870952308
6,2,308,25,20,5.6730835000053,2,1.12604934698902,-1,0.0169791798107326
6,2,309,16,12,3.50396058987826,1,0.925476145930588,-1,0.04175666696392
6,2,310,22,21,3.687426781049,2,1.10356757300906,-1,0.500411740038544
6,2,311,19,15,6.89100312697701,2,2.75145960808732,-1,0.168377408059314
6,2,312,23,17,4.15462797996588,2,1.61812387313694,1,1.50509526301175
6,2,313,14,13,3.58738842303865,2,1.70269786007702,-1,0.620207160012797
6,2,314,14,12,5.53957466315478,3,1.24780497816391,-1,0.23178755491972
6,2,315,14,10,5.65626745601185,1,1.04623990412802,-1,0.0170119469985366
6,2,316,15,16,4.62186561501585,2,2.25440128985792,-1,0.13316607195884
6,2,317,26,23,5.83983528497629,2,1.66825099894777,1,1.73796500405297
6,2,318,4,4,1.00120768509805,3,0.406175595009699,1,0.393347813980654
6,2,319,5,5,1.00121801509522,3,0.283306492958218,1,0.362826233031228
6,2,320,18,15,4.35487518296577,2,1.60181960789487,1,1.12198276515119
6,2,321,4,4,0.934448879910633,3,0.33747207489796,-1,0.6634686649777
6,2,322,12,16,2.76976716192439,2,1.25173093308695,1,0.0920077441260219
6,2,323,4,4,1.01784380385652,3,1.46369391679764,-1,0.293975271983072
6,2,324,11,10,3.85430659004487,3,0.912000256124884,-1,0.285673796897754
6,2,325,29,29,6.04008347308263,2,1.55770092806779,-1,3.90550446510315
6,2,326,15,13,4.38824109616689,3,1.51233429089189,-1,0.740815815050155
6,2,327,27,19,3.12015731795691,2,1.26886011008173,-1,0.402697984827682
6,2,328,21,16,5.03899809694849,2,1.25389923807234,-1,0.0374445649795234
6,2,329,7,7,2.05237926007248,2,1.24643035209738,-1,0.518599184928462
6,2,330,17,18,5.10571882803924,2,1.40803001192398,1,0.528405060060322
6,2,331,4,4,0.984439603053033,3,0.308878283016384,-1,0.371768562123179
6,2,332,19,17,5.17239638091996,2,1.42043595388532,1,0.750154221896082
6,2,333,18,14,2.78650480811484,2,1.32470450084656,-1,0.0900701729115099
6,2,334,4,4,0.934435714967549,3,0.907588783185929,-1,0.593877195147797
6,2,335,11,10,3.30367106501944,1,1.02967288019136,-1,0.0167906249407679
6,2,336,13,12,4.45500171300955,3,1.17449998785742,-1,0.842514464864507
6,2,337,10,13,3.30376355815679,2,1.05128337000497,1,0.683177469996735
6,2,338,13,15,4.93887922703288,1,1.04691569600254,-1,0.087640015874058
6,2,339,7,7,2.1858014150057,3,0.169929610099643,1,0.23857591394335
6,2,340,25,21,5.13901613885537,2,1.22995923785493,-1,0.0167877220083028
6,2,341,4,4,0.934414579998702,3,0.315366883063689,-1,0.0900297099724412
6,2,342,25,24,5.45602047303692,1,1.26449719490483,1,0.800078961066902
6,2,343,22,19,7.40822126204148,1,1.52619038196281,1,2.09846817189828
6,2,344,25,20,5.28920344705693,1,1.05539791309275,1,2.1103895700071
6,2,345,8,8,2.25242527318187,3,1.4996489121113,-1,3.74454078520648
6,2,346,19,22,6.44044769299217,2,1.33295168611221,1,0.960150351049379
6,2,347,28,25,2.65303288307041,1,0.72060152888298,1,0.109344000928104
6,2,348,22,17,3.75418361998163,2,0.844304772093892,-1,0.277514211833477
6,2,349,24,19,6.70751153188758,2,0.637741325190291,1,0.207567534176633
6,2,350,16,16,7.14131867699325,2,0.723114608088508,-1,0.0169727148022503
6,2,351,16,17,3.18694215198047,2,1.04683819017373,1,0.575403642840683
6,2,352,8,8,4.90549783804454,2,0.578588616102934,-1,0.327071191044524
6,2,353,20,24,6.24024657602422,1,1.15883302991278,1,0.0186988008208573
6,2,354,23,17,3.37045215209946,2,0.86814467003569,-1,0.21243702317588
6,2,355,22,15,5.88986575999297,2,0.837946186773479,-1,0.0168463820591569
6,2,356,7,7,2.73656629002653,3,0.236893615918234,-1,0.262363292975351
6,2,357,28,20,3.63737576105632,1,0.952966478886083,-1,0.595627025002614
6,2,358,26,21,5.0389476660639,1,1.03230675496161,-1,1.44051551190205
6,2,359,13,12,3.10351635189727,2,1.08968768594787,-1,0.480962504865602
6,2,360,4,4,0.934499725000933,3,0.163120937068015,-1,0.6008865700569
6,2,361,29,28,2.40273412689567,2,1.23037362005562,1,0.464382905978709
6,2,362,16,19,3.40373987797648,2,1.00831607496366,-1,0.842985457973555
6,2,363,23,24,7.85878051398322,3,1.2438204321079,-1,0.379190340172499
6,2,364,11,9,2.98671252303757,2,0.81488153594546,-1,1.63289035484195
6,2,365,27,23,5.47281190496869,2,1.31473879585974,-1,0.375263419933617
6,2,366,4,4,0.967753402888775,3,0.427093366160989,-1,0.31589567894116
6,2,367,24,24,7.09128306782804,1,1.4389686039649,-1,0.0170161100104451
6,2,368,6,6,1.90218017715961,3,0.334735082928091,-1,1.02010562596843
6,2,369,4,4,1.05127169680782,3,0.399430863093585,1,0.386054272064939
6,2,370,21,19,4.58843943290412,2,1.18537968210876,1,5.01821315614507
6,2,371,18,12,5.12233256292529,1,2.16093432810158,-1,0.484392707003281
6,2,372,16,20,5.05564891500399,2,0.900588375050575,1,0.475310320034623
6,2,373,12,13,3.27030707010999,1,1.42760435282253,-1,0.0169240548275411
6,2,374,16,18,4.88882864499465,2,1.04414258804172,-1,0.261228909948841
6,2,375,16,15,4.03781261784025,2,1.59540997794829,-1,0.301574265118688
6,2,376,26,23,7.34144592494704,2,1.76496180193499,1,0.246865052962676
6,2,377,11,10,2.26924322615378,2,0.624092699959874,-1,0.353263803990558
6,2,378,4,4,0.951101751998067,3,0.336221191100776,-1,0.445921159116551
6,2,379,16,16,5.80645195301622,2,0.925369770033285,-1,0.377190256025642
6,2,380,16,21,2.75305491290055,1,1.5252259450499,-1,0.929683417081833
6,2,381,11,13,4.33819976192899,2,0.652612052159384,-1,0.363770097028464
6,2,382,26,20,5.97330455086194,2,0.655725474935025,-1,0.480130257084966
6,2,383,22,18,4.88881271495484,2,0.614528859965503,1,1.23838435881771
6,2,384,22,16,3.82100037299097,2,0.509058448020369,-1,0.0839069751091301
6,2,385,23,17,5.62295311992057,2,0.794188784901053,-1,0.229395478032529
6,2,386,4,4,1.03449463308789,3,0.255870743887499,-1,0.528680971125141
6,2,387,18,16,4.32147321780212,2,0.493825325043872,-1,0.25997122679837
6,2,388,29,24,5.63955797604285,1,0.924115823116153,-1,0.0169504028744996
6,2,389,7,7,2.13578116497956,3,0.161353051895276,1,0.0169220818206668
6,2,390,29,29,2.06905618705787,1,2.89105190779082,-1,3.65642260108143
6,2,391,22,17,3.63744387286715,2,0.55386096611619,-1,0.229329327819869
6,2,392,29,23,5.25589102786034,2,1.05004971614107,1,0.27396055101417
6,2,393,18,15,3.23694715998136,2,1.02057146094739,-1,0.189571609953418
6,2,394,29,19,6.04009399213828,2,0.570049518020824,1,0.909902079962194
6,2,395,23,20,5.2726288549602,1,0.698761807987466,1,0.143405344104394
6,2,396,9,8,3.23696795292199,3,0.270810709102079,-1,0.0631356029771268
6,2,397,26,23,3.82102067489177,1,1.25943486019969,-1,2.3474844628945
6,2,398,4,4,1.33483177190647,3,0.562801118008792,1,0.488060169154778
6,2,399,21,19,4.42157821799628,2,0.853528934996575,1,2.25254647503607
6,2,400,11,13,4.18806351698004,2,0.305591210024431,-1,2.15240943501703
6,2,401,11,9,3.10354999196716,3,0.334605777869001,-1,0.130758305080235
6,2,402,22,13,5.68970571202226,2,0.82096287002787,-1,1.61384713300504
6,2,403,29,20,1.70196290803142,2,1.00024733901955,-1,0.377137657953426
6,2,404,23,17,1.80203265789896,2,1.21095422003418,-1,0.259277451084927
6,2,405,10,9,3.50395673699677,3,0.264006877085194,-1,0.0465679308399558
6,2,406,24,18,7.02451170212589,2,0.657872112002224,-1,1.17880411515944
6,2,407,29,26,7.24137035990134,1,0.908281927928329,1,0.40918526193127
6,2,408,22,22,7.70853745797649,2,0.857868917053565,1,0.154591678176075
6,2,409,7,6,2.68633519718423,2,0.55783583316952,-1,0.178470925893635
6,2,410,22,23,6.60738702188246,2,0.321485044900328,1,0.262977994978428
6,2,411,16,13,3.10350335901603,2,0.841558140004054,-1,0.603656067978591
6,2,412,29,16,6.02345657697879,2,1.13549837702885,1,0.522973321843892
6,2,413,17,14,4.38819137099199,2,0.868669633986428,-1,0.300325630931184
6,2,414,8,8,2.60297042690217,3,0.313811255153269,-1,0.0561835458502173
6,2,415,22,25,3.73758736788295,1,1.24186678999104,1,0.234252043068409
6,2,416,10,10,3.68743341695517,2,1.04679982084781,-1,0.12754366802983
6,2,417,26,14,3.60401371610351,2,0.776754372986034,-1,0.251415414037183
6,2,418,16,16,3.75413599796593,2,0.417903571855277,1,0.908100255066529
6,2,419,16,18,7.94214399997145,1,0.968328217044473,1,0.0169712780043483
6,2,420,4,4,0.93440234195441,3,0.327859434997663,-1,0.702434725128114
6,2,421,22,20,2.5361593880225,1,1.21492479788139,1,2.54340790119022
6,2,422,16,18,3.65414721192792,2,0.986746751936153,-1,0.0169152428861707
6,2,423,22,18,3.87098978110589,2,0.915473949862644,1,0.0169412321411073
6,2,424,7,6,1.6518333600834,3,0.274969656020403,-1,0.283480836078525
6,2,425,4,4,1.03451560600661,3,1.40742689790204,-1,0.297743503004313
6,2,426,16,10,2.85319310310297,2,1.64812793582678,-1,0.0169745099265128
6,2,427,12,12,3.87101332005113,2,0.967102427966893,1,0.016941144829616
6,2,428,4,4,1.01788227516226,3,0.287861035205424,-1,0.0955398108344525
6,2,429,16,16,4.18806474516168,2,0.906742171151564,1,0.0494772221427411
6,2,430,29,24,2.30256925709546,1,1.20771768316627,1,0.153932387009263
6,2,431,29,23,3.02002971502952,2,1.29365258896723,-1,0.714481130009517
6,2,432,7,7,1.96892951009795,3,0.256771042943001,-1,0.0737108800094575
6,2,433,8,8,2.51953559997492,3,0.223790104966611,-1,0.0169197970535606
6,2,434,24,17,2.68633709591813,1,0.938206139951944,1,0.84581474494189
6,2,435,24,13,6.17348900809884,1,0.939572008093819,-1,0.0169179851654917
6,2,436,29,20,4.70525020803325,1,0.11137387319468,1,0.046593947103247
6,2,437,19,18,3.95441668806598,2,0.798578465124592,1,0.14361054613255
6,2,438,11,12,2.56961501506157,2,2.39089703792706,-1,0.711932647973299
6,2,439,28,20,4.13794154301286,2,1.41719628404826,1,2.50605000695214
6,2,440,11,16,6.27368656010367,1,0.619273067917675,1,0.132759629981592
6,2,441,17,20,5.28916896600276,1,1.32726020901464,1,0.016923587070778
6,2,442,16,13,6.92441497510299,2,1.85216759308241,1,1.0340721339453
6,2,443,13,10,4.32147366995923,1,1.60873134597205,-1,0.625610423041508
6,2,444,11,10,2.50286652706563,3,1.4239663509652,-1,0.256830953061581
6,2,445,20,15,5.92329938989133,2,0.940321014961228,-1,0.0169458820018917
6,2,446,25,20,3.52060236106627,1,0.660200615879148,-1,1.06867892597802
6,2,447,26,14,4.8721881150268,3,1.44327908498235,-1,2.4824067899026
6,2,448,22,18,7.49171271501109,1,0.925113879842684,1,0.827445874921978
6,2,449,14,13,3.32035833317786,2,1.27767243492417,-1,0.587822251953185
6,2,450,28,21,6.87426199321635,1,1.19469910906628,-1,0.637290046084672
6,2,451,21,17,3.68743798602372,2,0.972708839923143,-1,0.432418474927545
6,2,452,21,20,5.82312550488859,1,1.34770718496293,1,0.0169422100298107
6,2,453,21,18,6.87434681714512,1,1.36739034787752,-1,0.841018025064841
6,2,454,17,13,4.00443420303054,1,1.00479249516502,-1,0.646428180858493
6,2,455,7,7,2.95333552989177,3,0.348249938106164,-1,0.0230502858757973
6,2,456,16,10,4.87206600606441,2,0.407379179028794,-1,0.0170709050726146
